[{"success":true,"rt":2682,"trial_type":"fullscreen","trial_index":0,"plugin_version":"2.1.0","time_elapsed":3765},{"task":"fixation","rt":6333,"stimulus":"<div style=\"font-size:60px;\">+</div>","response":" ","trial_type":"html-keyboard-response","trial_index":1,"plugin_version":"2.1.0","time_elapsed":10102},{"task":"movingdots","control_change":0,"mouse_data":[{"dx":0,"dy":0},{"dx":0,"dy":0},{"dx":0,"dy":0},{"dx":0,"dy":0},{"dx":0,"dy":0},{"dx":0,"dy":0},{"dx":0,"dy":0},{"dx":0,"dy":0},{"dx":0,"dy":0},{"dx":0,"dy":0},{"dx":0,"dy":0},{"dx":0,"dy":0},{"dx":0,"dy":0},{"dx":0,"dy":0},{"dx":0,"dy":0},{"dx":0,"dy":0},{"dx":0,"dy":0},{"dx":0,"dy":0},{"dx":0,"dy":0},{"dx":0,"dy":0},{"dx":0,"dy":0},{"dx":0,"dy":0},{"dx":0,"dy":0},{"dx":0,"dy":0},{"dx":0,"dy":0},{"dx":0,"dy":0},{"dx":0,"dy":0},{"dx":0,"dy":0},{"dx":0,"dy":0},{"dx":0,"dy":0},{"dx":0,"dy":0},{"dx":-3,"dy":3},{"dx":-3,"dy":3},{"dx":-1,"dy":1},{"dx":-2,"dy":4},{"dx":0,"dy":0},{"dx":0,"dy":0},{"dx":0,"dy":0},{"dx":0,"dy":0},{"dx":-1,"dy":1},{"dx":-3,"dy":3},{"dx":-1,"dy":1},{"dx":-1,"dy":0},{"dx":-1,"dy":0},{"dx":-1,"dy":1},{"dx":0,"dy":0},{"dx":-1,"dy":0},{"dx":-2,"dy":1},{"dx":-4,"dy":1},{"dx":0,"dy":0},{"dx":-1,"dy":0},{"dx":-2,"dy":0},{"dx":-1,"dy":0},{"dx":-9,"dy":-1},{"dx":-5,"dy":-1},{"dx":-4,"dy":-1},{"dx":-1,"dy":0},{"dx":-5,"dy":-2},{"dx":-6,"dy":0},{"dx":-4,"dy":0},{"dx":-6,"dy":0},{"dx":-6,"dy":0},{"dx":-5,"dy":0},{"dx":-12,"dy":0},{"dx":-9,"dy":2},{"dx":-11,"dy":1},{"dx":-12,"dy":2},{"dx":-5,"dy":0},{"dx":-4,"dy":0},{"dx":-13,"dy":-2},{"dx":-5,"dy":-1},{"dx":-8,"dy":-2},{"dx":-13,"dy":-4},{"dx":-4,"dy":-4},{"dx":-5,"dy":-4},{"dx":-4,"dy":-5},{"dx":-3,"dy":-5},{"dx":-2,"dy":-6},{"dx":-2,"dy":-6},{"dx":2,"dy":-12},{"dx":7,"dy":-12},{"dx":22,"dy":-21},{"dx":20,"dy":-14},{"dx":21,"dy":-11},{"dx":37,"dy":-10},{"dx":22,"dy":0},{"dx":27,"dy":1},{"dx":46,"dy":10},{"dx":39,"dy":14},{"dx":45,"dy":22},{"dx":47,"dy":30},{"dx":15,"dy":10},{"dx":17,"dy":9},{"dx":11,"dy":6},{"dx":18,"dy":6},{"dx":25,"dy":9},{"dx":28,"dy":15},{"dx":12,"dy":4},{"dx":11,"dy":2},{"dx":16,"dy":-5},{"dx":8,"dy":-7},{"dx":8,"dy":-6},{"dx":12,"dy":-10},{"dx":8,"dy":-8},{"dx":7,"dy":-13},{"dx":5,"dy":-20},{"dx":0,"dy":-11},{"dx":-7,"dy":-12},{"dx":-20,"dy":-18},{"dx":-13,"dy":-9},{"dx":-19,"dy":-10},{"dx":-49,"dy":-16},{"dx":-43,"dy":-11},{"dx":-44,"dy":-5},{"dx":-55,"dy":0},{"dx":-31,"dy":1},{"dx":-24,"dy":2},{"dx":-30,"dy":5},{"dx":-14,"dy":3},{"dx":-15,"dy":5},{"dx":-17,"dy":10},{"dx":-7,"dy":9},{"dx":-6,"dy":11},{"dx":-8,"dy":24},{"dx":-4,"dy":39},{"dx":-1,"dy":56},{"dx":1,"dy":47},{"dx":2,"dy":16},{"dx":1,"dy":8},{"dx":0,"dy":18},{"dx":-5,"dy":23},{"dx":-4,"dy":16},{"dx":-5,"dy":10},{"dx":-4,"dy":6},{"dx":-12,"dy":5},{"dx":-28,"dy":-1},{"dx":-29,"dy":-5},{"dx":-37,"dy":-9},{"dx":-62,"dy":-36},{"dx":-50,"dy":-43},{"dx":-47,"dy":-40},{"dx":-41,"dy":-30},{"dx":-13,"dy":-7},{"dx":-6,"dy":-2},{"dx":-7,"dy":-3},{"dx":-3,"dy":-3},{"dx":0,"dy":-1},{"dx":0,"dy":-6},{"dx":1,"dy":-6},{"dx":1,"dy":-5},{"dx":2,"dy":-5},{"dx":10,"dy":-16},{"dx":15,"dy":-17},{"dx":25,"dy":-18},{"dx":39,"dy":-19},{"dx":21,"dy":-5},{"dx":33,"dy":-3},{"dx":30,"dy":0},{"dx":41,"dy":2},{"dx":52,"dy":6},{"dx":95,"dy":12},{"dx":59,"dy":13},{"dx":80,"dy":25},{"dx":51,"dy":24},{"dx":49,"dy":38},{"dx":45,"dy":31},{"dx":82,"dy":36},{"dx":48,"dy":18},{"dx":48,"dy":14},{"dx":20,"dy":2},{"dx":17,"dy":-4},{"dx":22,"dy":-17},{"dx":9,"dy":-12},{"dx":6,"dy":-14},{"dx":2,"dy":-11},{"dx":-6,"dy":-33},{"dx":-14,"dy":-27},{"dx":-23,"dy":-27},{"dx":-50,"dy":-39},{"dx":-59,"dy":-23},{"dx":-76,"dy":-18},{"dx":-126,"dy":-17},{"dx":-76,"dy":-2},{"dx":-64,"dy":0},{"dx":-86,"dy":7},{"dx":-62,"dy":12},{"dx":-57,"dy":15},{"dx":-56,"dy":20},{"dx":-20,"dy":9},{"dx":-11,"dy":6},{"dx":-10,"dy":14},{"dx":-7,"dy":26},{"dx":-2,"dy":38},{"dx":16,"dy":83},{"dx":22,"dy":47},{"dx":24,"dy":27},{"dx":59,"dy":15},{"dx":64,"dy":-2},{"dx":79,"dy":-15},{"dx":141,"dy":-42},{"dx":97,"dy":-32},{"dx":90,"dy":-35},{"dx":109,"dy":-54},{"dx":40,"dy":-28},{"dx":21,"dy":-17},{"dx":10,"dy":-10},{"dx":0,"dy":-5},{"dx":-9,"dy":-11},{"dx":-75,"dy":-39},{"dx":-87,"dy":-20},{"dx":-90,"dy":-8},{"dx":-129,"dy":3},{"dx":-89,"dy":11},{"dx":-91,"dy":17},{"dx":-108,"dy":24},{"dx":-43,"dy":16},{"dx":-20,"dy":10},{"dx":-11,"dy":13},{"dx":-1,"dy":12},{"dx":8,"dy":15},{"dx":42,"dy":45},{"dx":47,"dy":40},{"dx":59,"dy":35},{"dx":100,"dy":14},{"dx":94,"dy":-12},{"dx":112,"dy":-18},{"dx":158,"dy":-21},{"dx":85,"dy":-9},{"dx":61,"dy":-10},{"dx":50,"dy":-24},{"dx":13,"dy":-12},{"dx":3,"dy":-6},{"dx":-1,"dy":-16},{"dx":-12,"dy":-10},{"dx":-38,"dy":-10},{"dx":-101,"dy":-11},{"dx":-89,"dy":-5},{"dx":-100,"dy":6},{"dx":-148,"dy":31},{"dx":-78,"dy":27},{"dx":-58,"dy":32},{"dx":-36,"dy":31},{"dx":-7,"dy":11},{"dx":-1,"dy":14},{"dx":18,"dy":30},{"dx":28,"dy":31},{"dx":36,"dy":27},{"dx":54,"dy":7},{"dx":46,"dy":-17},{"dx":57,"dy":-29},{"dx":65,"dy":-24},{"dx":28,"dy":-10},{"dx":25,"dy":-10},{"dx":25,"dy":-14},{"dx":8,"dy":-13},{"dx":6,"dy":-20},{"dx":-4,"dy":-26},{"dx":-23,"dy":-21},{"dx":-43,"dy":-19},{"dx":-92,"dy":-20},{"dx":-70,"dy":-12},{"dx":-69,"dy":-6},{"dx":-69,"dy":2},{"dx":-90,"dy":21},{"dx":-41,"dy":19},{"dx":-16,"dy":11},{"dx":-10,"dy":10},{"dx":-2,"dy":13},{"dx":6,"dy":18},{"dx":38,"dy":53},{"dx":43,"dy":35},{"dx":41,"dy":22},{"dx":97,"dy":16},{"dx":74,"dy":2},{"dx":71,"dy":0},{"dx":89,"dy":5},{"dx":35,"dy":5},{"dx":16,"dy":0},{"dx":15,"dy":-8},{"dx":14,"dy":-11},{"dx":10,"dy":-14},{"dx":9,"dy":-19},{"dx":-2,"dy":-19},{"dx":-25,"dy":-40},{"dx":-78,"dy":-73},{"dx":-70,"dy":-36},{"dx":-81,"dy":-16},{"dx":-128,"dy":1},{"dx":-71,"dy":16},{"dx":-54,"dy":19},{"dx":-38,"dy":16},{"dx":-12,"dy":5},{"dx":-5,"dy":2},{"dx":-8,"dy":6},{"dx":-1,"dy":0},{"dx":-3,"dy":5},{"dx":5,"dy":9},{"dx":21,"dy":15},{"dx":47,"dy":22},{"dx":99,"dy":49},{"dx":68,"dy":30},{"dx":73,"dy":24},{"dx":90,"dy":14},{"dx":52,"dy":1},{"dx":39,"dy":-3},{"dx":48,"dy":-11},{"dx":24,"dy":-12},{"dx":15,"dy":-16},{"dx":17,"dy":-24},{"dx":3,"dy":-13},{"dx":-5,"dy":-13},{"dx":-28,"dy":-23},{"dx":-39,"dy":-20},{"dx":-49,"dy":-23},{"dx":-83,"dy":-27},{"dx":-56,"dy":-7},{"dx":-59,"dy":2},{"dx":-80,"dy":19},{"dx":-47,"dy":20},{"dx":-39,"dy":26},{"dx":-52,"dy":45},{"dx":-23,"dy":31},{"dx":-17,"dy":39},{"dx":-11,"dy":52},{"dx":2,"dy":30},{"dx":13,"dy":28},{"dx":41,"dy":34},{"dx":43,"dy":11},{"dx":56,"dy":10},{"dx":97,"dy":7},{"dx":62,"dy":3},{"dx":59,"dy":0},{"dx":88,"dy":-7},{"dx":54,"dy":-17},{"dx":37,"dy":-22},{"dx":34,"dy":-28},{"dx":14,"dy":-23},{"dx":7,"dy":-29},{"dx":-2,"dy":-46},{"dx":-11,"dy":-35},{"dx":-15,"dy":-29},{"dx":-40,"dy":-40},{"dx":-45,"dy":-31},{"dx":-57,"dy":-27},{"dx":-91,"dy":-24},{"dx":-60,"dy":-6},{"dx":-57,"dy":-4},{"dx":-83,"dy":5},{"dx":-41,"dy":7},{"dx":-38,"dy":11},{"dx":-24,"dy":12},{"dx":-9,"dy":8},{"dx":-8,"dy":8},{"dx":-7,"dy":22},{"dx":-1,"dy":25},{"dx":4,"dy":33},{"dx":14,"dy":42},{"dx":23,"dy":28},{"dx":30,"dy":22},{"dx":67,"dy":27},{"dx":49,"dy":15},{"dx":54,"dy":4},{"dx":97,"dy":-12},{"dx":74,"dy":-20},{"dx":67,"dy":-24},{"dx":70,"dy":-34},{"dx":13,"dy":-7},{"dx":7,"dy":-10},{"dx":-2,"dy":-23},{"dx":-24,"dy":-40},{"dx":-50,"dy":-40},{"dx":-108,"dy":-41},{"dx":-75,"dy":-14},{"dx":-67,"dy":-2},{"dx":-91,"dy":0},{"dx":-55,"dy":0},{"dx":-46,"dy":1},{"dx":-58,"dy":7},{"dx":-24,"dy":6},{"dx":-22,"dy":7},{"dx":-25,"dy":8},{"dx":-16,"dy":3},{"dx":-17,"dy":2},{"dx":-19,"dy":2},{"dx":-10,"dy":1},{"dx":-10,"dy":0},{"dx":-13,"dy":-6},{"dx":-5,"dy":-7},{"dx":-4,"dy":-8},{"dx":-1,"dy":-7},{"dx":-2,"dy":-6},{"dx":0,"dy":-5},{"dx":-1,"dy":-8},{"dx":2,"dy":-20},{"dx":5,"dy":-13},{"dx":7,"dy":-13},{"dx":16,"dy":-14},{"dx":19,"dy":-9},{"dx":25,"dy":-10},{"dx":37,"dy":-9},{"dx":24,"dy":-5},{"dx":41,"dy":-4},{"dx":76,"dy":-1},{"dx":55,"dy":4},{"dx":37,"dy":4},{"dx":45,"dy":4},{"dx":30,"dy":3},{"dx":39,"dy":4},{"dx":65,"dy":18},{"dx":30,"dy":19},{"dx":24,"dy":18},{"dx":18,"dy":13},{"dx":15,"dy":4},{"dx":44,"dy":5},{"dx":81,"dy":12},{"dx":52,"dy":14},{"dx":26,"dy":7},{"dx":29,"dy":0},{"dx":32,"dy":-10},{"dx":44,"dy":-20},{"dx":56,"dy":-20},{"dx":20,"dy":-6},{"dx":6,"dy":-1},{"dx":4,"dy":-2},{"dx":-2,"dy":-5},{"dx":-13,"dy":-6},{"dx":-29,"dy":-15},{"dx":-19,"dy":-10},{"dx":-20,"dy":-9},{"dx":-35,"dy":-20},{"dx":-18,"dy":-12},{"dx":-14,"dy":-7},{"dx":-20,"dy":-11},{"dx":0,"dy":0},{"dx":-12,"dy":-5},{"dx":0,"dy":0},{"dx":0,"dy":0},{"dx":0,"dy":0},{"dx":0,"dy":0},{"dx":0,"dy":0},{"dx":0,"dy":0},{"dx":0,"dy":0},{"dx":0,"dy":0},{"dx":0,"dy":0},{"dx":0,"dy":0},{"dx":0,"dy":0},{"dx":0,"dy":0},{"dx":0,"dy":0},{"dx":0,"dy":0},{"dx":0,"dy":0},{"dx":0,"dy":0},{"dx":0,"dy":0},{"dx":0,"dy":0}],"trial_type":"plugin-moving-dots-2","trial_index":2,"plugin_version":"0.0.1","time_elapsed":17619},{"task":"fixation","rt":5712,"stimulus":"<div style=\"font-size:60px;\">+</div>","response":" ","trial_type":"html-keyboard-response","trial_index":3,"plugin_version":"2.1.0","time_elapsed":23333},{"task":"movingdots","control_change":0,"mouse_data":[{"dx":0,"dy":0},{"dx":0,"dy":0},{"dx":0,"dy":0},{"dx":0,"dy":0},{"dx":0,"dy":0},{"dx":0,"dy":0},{"dx":0,"dy":0},{"dx":0,"dy":0},{"dx":0,"dy":0},{"dx":0,"dy":0},{"dx":0,"dy":0},{"dx":0,"dy":0},{"dx":0,"dy":0},{"dx":0,"dy":0},{"dx":0,"dy":0},{"dx":0,"dy":0},{"dx":0,"dy":0},{"dx":0,"dy":0},{"dx":0,"dy":0},{"dx":0,"dy":0},{"dx":0,"dy":0},{"dx":0,"dy":0},{"dx":0,"dy":0},{"dx":0,"dy":0},{"dx":0,"dy":0},{"dx":0,"dy":0},{"dx":0,"dy":0},{"dx":0,"dy":0},{"dx":0,"dy":0},{"dx":0,"dy":0},{"dx":0,"dy":0},{"dx":0,"dy":0},{"dx":0,"dy":0},{"dx":0,"dy":0},{"dx":0,"dy":0},{"dx":0,"dy":0},{"dx":0,"dy":0},{"dx":0,"dy":0},{"dx":0,"dy":0},{"dx":0,"dy":0},{"dx":0,"dy":0},{"dx":0,"dy":0},{"dx":0,"dy":0},{"dx":1,"dy":0},{"dx":1,"dy":0},{"dx":4,"dy":1},{"dx":2,"dy":0},{"dx":5,"dy":0},{"dx":0,"dy":0},{"dx":1,"dy":0},{"dx":2,"dy":1},{"dx":4,"dy":1},{"dx":0,"dy":0},{"dx":6,"dy":3},{"dx":4,"dy":3},{"dx":0,"dy":0},{"dx":4,"dy":2},{"dx":0,"dy":1},{"dx":3,"dy":2},{"dx":5,"dy":3},{"dx":5,"dy":1},{"dx":9,"dy":3},{"dx":4,"dy":2},{"dx":5,"dy":1},{"dx":7,"dy":2},{"dx":17,"dy":3},{"dx":13,"dy":2},{"dx":13,"dy":1},{"dx":27,"dy":-1},{"dx":18,"dy":-4},{"dx":16,"dy":-3},{"dx":11,"dy":-2},{"dx":6,"dy":-3},{"dx":1,"dy":0},{"dx":5,"dy":-2},{"dx":1,"dy":-6},{"dx":1,"dy":-19},{"dx":-6,"dy":-34},{"dx":-13,"dy":-27},{"dx":-19,"dy":-31},{"dx":-29,"dy":-31},{"dx":-32,"dy":-18},{"dx":-18,"dy":-9},{"dx":-22,"dy":-8},{"dx":-18,"dy":-4},{"dx":-14,"dy":-2},{"dx":-22,"dy":-2},{"dx":-11,"dy":-1},{"dx":-9,"dy":0},{"dx":-20,"dy":4},{"dx":-13,"dy":6},{"dx":-13,"dy":8},{"dx":-20,"dy":10},{"dx":-9,"dy":7},{"dx":-7,"dy":10},{"dx":-12,"dy":24},{"dx":-8,"dy":29},{"dx":-4,"dy":31},{"dx":-7,"dy":45},{"dx":-7,"dy":22},{"dx":-12,"dy":30},{"dx":-22,"dy":35},{"dx":-18,"dy":27},{"dx":-12,"dy":17},{"dx":-20,"dy":14},{"dx":-20,"dy":8},{"dx":-16,"dy":5},{"dx":-21,"dy":4},{"dx":-15,"dy":0},{"dx":-13,"dy":-4},{"dx":-38,"dy":-25},{"dx":-25,"dy":-20},{"dx":-28,"dy":-21},{"dx":-32,"dy":-27},{"dx":-16,"dy":-18},{"dx":-18,"dy":-20},{"dx":-16,"dy":-18},{"dx":-7,"dy":-9},{"dx":-5,"dy":-6},{"dx":-4,"dy":-6},{"dx":-1,"dy":-5},{"dx":-1,"dy":-5},{"dx":3,"dy":-17},{"dx":9,"dy":-13},{"dx":20,"dy":-24},{"dx":41,"dy":-39},{"dx":31,"dy":-20},{"dx":28,"dy":-14},{"dx":41,"dy":-12},{"dx":37,"dy":-2},{"dx":42,"dy":4},{"dx":72,"dy":15},{"dx":47,"dy":13},{"dx":41,"dy":20},{"dx":41,"dy":20},{"dx":67,"dy":37},{"dx":46,"dy":32},{"dx":41,"dy":32},{"dx":38,"dy":50},{"dx":19,"dy":37},{"dx":20,"dy":35},{"dx":29,"dy":38},{"dx":26,"dy":29},{"dx":25,"dy":17},{"dx":31,"dy":12},{"dx":24,"dy":5},{"dx":27,"dy":1},{"dx":65,"dy":-19},{"dx":41,"dy":-20},{"dx":34,"dy":-17},{"dx":29,"dy":-16},{"dx":12,"dy":-10},{"dx":14,"dy":-22},{"dx":12,"dy":-46},{"dx":-4,"dy":-42},{"dx":-17,"dy":-46},{"dx":-52,"dy":-71},{"dx":-43,"dy":-39},{"dx":-63,"dy":-45},{"dx":-116,"dy":-48},{"dx":-85,"dy":-17},{"dx":-66,"dy":-9},{"dx":-66,"dy":-1},{"dx":-29,"dy":4},{"dx":-16,"dy":7},{"dx":-37,"dy":28},{"dx":-28,"dy":27},{"dx":-32,"dy":46},{"dx":-40,"dy":69},{"dx":-15,"dy":41},{"dx":-12,"dy":42},{"dx":-9,"dy":62},{"dx":0,"dy":29},{"dx":7,"dy":45},{"dx":12,"dy":28},{"dx":8,"dy":8},{"dx":5,"dy":4},{"dx":1,"dy":1},{"dx":0,"dy":1},{"dx":-2,"dy":2},{"dx":-17,"dy":0},{"dx":-24,"dy":-5},{"dx":-29,"dy":-11},{"dx":-54,"dy":-37},{"dx":-31,"dy":-21},{"dx":-36,"dy":-20},{"dx":-53,"dy":-40},{"dx":-35,"dy":-25},{"dx":-26,"dy":-19},{"dx":-27,"dy":-18},{"dx":-10,"dy":-5},{"dx":-10,"dy":-3},{"dx":-12,"dy":-3},{"dx":-7,"dy":-4},{"dx":-3,"dy":-4},{"dx":-2,"dy":-6},{"dx":-1,"dy":-5},{"dx":0,"dy":-4},{"dx":8,"dy":-12},{"dx":10,"dy":-9},{"dx":13,"dy":-10},{"dx":28,"dy":-19},{"dx":16,"dy":-7},{"dx":20,"dy":-4},{"dx":23,"dy":-2},{"dx":12,"dy":0},{"dx":12,"dy":0},{"dx":6,"dy":0},{"dx":6,"dy":1},{"dx":6,"dy":0},{"dx":13,"dy":3},{"dx":5,"dy":1},{"dx":0,"dy":0},{"dx":1,"dy":0},{"dx":1,"dy":1},{"dx":1,"dy":0},{"dx":0,"dy":0},{"dx":0,"dy":0},{"dx":0,"dy":0},{"dx":0,"dy":0},{"dx":0,"dy":0},{"dx":0,"dy":0},{"dx":0,"dy":0},{"dx":0,"dy":0},{"dx":0,"dy":0},{"dx":0,"dy":0},{"dx":0,"dy":0},{"dx":0,"dy":0},{"dx":0,"dy":0},{"dx":12,"dy":3},{"dx":13,"dy":4},{"dx":15,"dy":5},{"dx":11,"dy":5},{"dx":12,"dy":5},{"dx":17,"dy":11},{"dx":8,"dy":6},{"dx":11,"dy":4},{"dx":15,"dy":4},{"dx":13,"dy":4},{"dx":14,"dy":5},{"dx":21,"dy":10},{"dx":8,"dy":6},{"dx":8,"dy":7},{"dx":10,"dy":13},{"dx":11,"dy":13},{"dx":20,"dy":25},{"dx":13,"dy":15},{"dx":18,"dy":15},{"dx":20,"dy":10},{"dx":40,"dy":14},{"dx":35,"dy":2},{"dx":32,"dy":1},{"dx":30,"dy":-2},{"dx":19,"dy":-1},{"dx":18,"dy":-3},{"dx":29,"dy":-6},{"dx":17,"dy":-5},{"dx":16,"dy":-6},{"dx":14,"dy":-9},{"dx":5,"dy":-4},{"dx":4,"dy":-5},{"dx":8,"dy":-9},{"dx":9,"dy":-10},{"dx":12,"dy":-9},{"dx":11,"dy":-10},{"dx":8,"dy":-8},{"dx":5,"dy":-5},{"dx":3,"dy":-3},{"dx":3,"dy":-5},{"dx":1,"dy":-1},{"dx":3,"dy":-6},{"dx":2,"dy":-7},{"dx":1,"dy":-5},{"dx":0,"dy":-7},{"dx":0,"dy":-6},{"dx":-2,"dy":-6},{"dx":-4,"dy":-6},{"dx":-16,"dy":-12},{"dx":-18,"dy":-8},{"dx":-16,"dy":-6},{"dx":-24,"dy":-7},{"dx":-12,"dy":-4},{"dx":-10,"dy":-3},{"dx":-17,"dy":-1},{"dx":-13,"dy":2},{"dx":-13,"dy":5},{"dx":-38,"dy":16},{"dx":-31,"dy":15},{"dx":-33,"dy":19},{"dx":-45,"dy":39},{"dx":-28,"dy":27},{"dx":-21,"dy":27},{"dx":-9,"dy":20},{"dx":-2,"dy":7},{"dx":1,"dy":7},{"dx":6,"dy":14},{"dx":8,"dy":14},{"dx":13,"dy":14},{"dx":25,"dy":24},{"dx":16,"dy":10},{"dx":15,"dy":6},{"dx":31,"dy":9},{"dx":15,"dy":3},{"dx":11,"dy":1},{"dx":10,"dy":2},{"dx":13,"dy":0},{"dx":12,"dy":-3},{"dx":20,"dy":-8},{"dx":17,"dy":-5},{"dx":22,"dy":-9},{"dx":14,"dy":-7},{"dx":10,"dy":-7},{"dx":7,"dy":-6},{"dx":6,"dy":-7},{"dx":4,"dy":-7},{"dx":4,"dy":-5},{"dx":9,"dy":-14},{"dx":4,"dy":-9},{"dx":2,"dy":-6},{"dx":4,"dy":-19},{"dx":0,"dy":-8},{"dx":0,"dy":-9},{"dx":1,"dy":-9},{"dx":3,"dy":-5},{"dx":2,"dy":-4},{"dx":1,"dy":-1},{"dx":0,"dy":-1},{"dx":1,"dy":-1},{"dx":13,"dy":0},{"dx":5,"dy":0},{"dx":5,"dy":-1},{"dx":2,"dy":0},{"dx":0,"dy":0},{"dx":0,"dy":0},{"dx":0,"dy":0},{"dx":0,"dy":0},{"dx":0,"dy":0},{"dx":0,"dy":0},{"dx":0,"dy":0},{"dx":0,"dy":0},{"dx":0,"dy":0},{"dx":0,"dy":0},{"dx":0,"dy":0},{"dx":0,"dy":0},{"dx":0,"dy":0},{"dx":0,"dy":0},{"dx":0,"dy":0},{"dx":0,"dy":0},{"dx":0,"dy":0},{"dx":0,"dy":0},{"dx":0,"dy":0},{"dx":0,"dy":0},{"dx":0,"dy":0},{"dx":0,"dy":0},{"dx":4,"dy":-3},{"dx":16,"dy":-8},{"dx":50,"dy":-16},{"dx":35,"dy":-6},{"dx":32,"dy":-2},{"dx":35,"dy":7},{"dx":14,"dy":9},{"dx":13,"dy":10},{"dx":21,"dy":7},{"dx":17,"dy":-1},{"dx":35,"dy":-7},{"dx":41,"dy":-8},{"dx":17,"dy":-3},{"dx":16,"dy":-2},{"dx":18,"dy":-4},{"dx":9,"dy":-3},{"dx":8,"dy":-6},{"dx":8,"dy":-7},{"dx":4,"dy":-5},{"dx":1,"dy":-6},{"dx":-1,"dy":-18},{"dx":-5,"dy":-17},{"dx":-12,"dy":-26},{"dx":-17,"dy":-34},{"dx":-15,"dy":-17},{"dx":-17,"dy":-13},{"dx":-23,"dy":-14},{"dx":-18,"dy":-10},{"dx":-16,"dy":-9},{"dx":-22,"dy":-11},{"dx":-14,"dy":-5},{"dx":-14,"dy":-4},{"dx":-28,"dy":-3},{"dx":-18,"dy":0},{"dx":-16,"dy":0},{"dx":-20,"dy":-2},{"dx":-10,"dy":0},{"dx":-13,"dy":2},{"dx":-33,"dy":11},{"dx":-23,"dy":12},{"dx":-18,"dy":11},{"dx":-15,"dy":12},{"dx":-8,"dy":7},{"dx":-8,"dy":9},{"dx":-10,"dy":19},{"dx":-5,"dy":12},{"dx":-2,"dy":12},{"dx":2,"dy":20},{"dx":7,"dy":12},{"dx":15,"dy":17},{"dx":31,"dy":37},{"dx":20,"dy":20},{"dx":21,"dy":23},{"dx":21,"dy":30},{"dx":11,"dy":19},{"dx":10,"dy":31},{"dx":4,"dy":21},{"dx":0,"dy":11},{"dx":-2,"dy":16},{"dx":-3,"dy":14},{"dx":-3,"dy":7},{"dx":-3,"dy":4},{"dx":-7,"dy":6},{"dx":-5,"dy":3},{"dx":-6,"dy":3},{"dx":-3,"dy":2},{"dx":0,"dy":0},{"dx":0,"dy":0},{"dx":0,"dy":0},{"dx":0,"dy":0},{"dx":0,"dy":0},{"dx":-12,"dy":-4},{"dx":-12,"dy":-6},{"dx":-13,"dy":-6},{"dx":-13,"dy":-4},{"dx":-10,"dy":-5},{"dx":-13,"dy":-6},{"dx":-20,"dy":-18},{"dx":-12,"dy":-12},{"dx":-17,"dy":-12},{"dx":-21,"dy":-14},{"dx":-14,"dy":-12},{"dx":-13,"dy":-13},{"dx":-17,"dy":-14},{"dx":-12,"dy":-8},{"dx":-13,"dy":-8},{"dx":-18,"dy":-15},{"dx":-10,"dy":-8},{"dx":-10,"dy":-5},{"dx":-14,"dy":-6},{"dx":-9,"dy":-2},{"dx":-7,"dy":-1},{"dx":-6,"dy":-3},{"dx":-3,"dy":-2},{"dx":-6,"dy":-2},{"dx":-1,"dy":0},{"dx":-1,"dy":0},{"dx":0,"dy":0}],"trial_type":"plugin-moving-dots-2","trial_index":4,"plugin_version":"0.0.1","time_elapsed":30836},{"task":"fixation","rt":2207,"stimulus":"<div style=\"font-size:60px;\">+</div>","response":" ","trial_type":"html-keyboard-response","trial_index":5,"plugin_version":"2.1.0","time_elapsed":33045},{"task":"movingdots","control_change":0,"mouse_data":[{"dx":0,"dy":0},{"dx":0,"dy":0},{"dx":0,"dy":0},{"dx":0,"dy":0},{"dx":0,"dy":0},{"dx":0,"dy":0},{"dx":0,"dy":0},{"dx":0,"dy":0},{"dx":0,"dy":0},{"dx":0,"dy":0},{"dx":0,"dy":0},{"dx":0,"dy":0},{"dx":0,"dy":0},{"dx":0,"dy":0},{"dx":0,"dy":0},{"dx":0,"dy":0},{"dx":0,"dy":0},{"dx":0,"dy":0},{"dx":0,"dy":0},{"dx":0,"dy":0},{"dx":0,"dy":0},{"dx":0,"dy":0},{"dx":0,"dy":0},{"dx":0,"dy":0},{"dx":0,"dy":0},{"dx":0,"dy":0},{"dx":0,"dy":0},{"dx":0,"dy":0},{"dx":0,"dy":0},{"dx":0,"dy":0},{"dx":-3,"dy":4},{"dx":-6,"dy":7},{"dx":-3,"dy":4},{"dx":-4,"dy":4},{"dx":-3,"dy":5},{"dx":-1,"dy":0},{"dx":-1,"dy":3},{"dx":-3,"dy":4},{"dx":-4,"dy":4},{"dx":0,"dy":0},{"dx":-4,"dy":4},{"dx":-3,"dy":2},{"dx":-5,"dy":2},{"dx":-10,"dy":7},{"dx":-8,"dy":4},{"dx":-4,"dy":5},{"dx":-13,"dy":10},{"dx":-6,"dy":3},{"dx":-4,"dy":3},{"dx":-7,"dy":4},{"dx":-9,"dy":5},{"dx":-9,"dy":5},{"dx":-15,"dy":6},{"dx":-5,"dy":3},{"dx":-7,"dy":3},{"dx":-13,"dy":6},{"dx":-8,"dy":5},{"dx":-10,"dy":4},{"dx":-9,"dy":4},{"dx":-14,"dy":7},{"dx":-10,"dy":4},{"dx":-9,"dy":3},{"dx":-15,"dy":3},{"dx":-9,"dy":3},{"dx":-12,"dy":4},{"dx":-16,"dy":5},{"dx":-13,"dy":5},{"dx":-9,"dy":3},{"dx":-7,"dy":2},{"dx":-5,"dy":1},{"dx":-10,"dy":1},{"dx":-9,"dy":1},{"dx":-6,"dy":1},{"dx":-6,"dy":1},{"dx":-12,"dy":0},{"dx":-8,"dy":0},{"dx":-7,"dy":-1},{"dx":-12,"dy":0},{"dx":-8,"dy":1},{"dx":-7,"dy":0},{"dx":-14,"dy":-2},{"dx":-6,"dy":-1},{"dx":-5,"dy":-1},{"dx":-12,"dy":-3},{"dx":-6,"dy":-2},{"dx":-4,"dy":-2},{"dx":-5,"dy":-1},{"dx":-5,"dy":-2},{"dx":0,"dy":-1},{"dx":-1,"dy":-1},{"dx":0,"dy":-1},{"dx":-1,"dy":-1},{"dx":-1,"dy":-2},{"dx":0,"dy":0},{"dx":0,"dy":0},{"dx":0,"dy":0},{"dx":0,"dy":0},{"dx":0,"dy":0},{"dx":0,"dy":0},{"dx":0,"dy":0},{"dx":0,"dy":0},{"dx":0,"dy":0},{"dx":0,"dy":0},{"dx":0,"dy":0},{"dx":0,"dy":0},{"dx":0,"dy":0},{"dx":0,"dy":0},{"dx":0,"dy":0},{"dx":0,"dy":0},{"dx":0,"dy":0},{"dx":0,"dy":0},{"dx":0,"dy":0},{"dx":0,"dy":0},{"dx":0,"dy":0},{"dx":0,"dy":0},{"dx":0,"dy":0},{"dx":0,"dy":0},{"dx":0,"dy":0},{"dx":0,"dy":0},{"dx":0,"dy":0},{"dx":0,"dy":0},{"dx":0,"dy":0},{"dx":0,"dy":0},{"dx":0,"dy":0},{"dx":0,"dy":0},{"dx":0,"dy":0},{"dx":0,"dy":0},{"dx":-10,"dy":-4},{"dx":-15,"dy":-7},{"dx":-5,"dy":-2},{"dx":-12,"dy":-6},{"dx":-7,"dy":-7},{"dx":-6,"dy":-5},{"dx":-6,"dy":-5},{"dx":-13,"dy":-12},{"dx":-8,"dy":-8},{"dx":-4,"dy":-4},{"dx":-10,"dy":-13},{"dx":-4,"dy":-7},{"dx":-3,"dy":-5},{"dx":-3,"dy":-6},{"dx":-4,"dy":-4},{"dx":-4,"dy":-7},{"dx":-8,"dy":-13},{"dx":-4,"dy":-6},{"dx":-2,"dy":-4},{"dx":-2,"dy":-6},{"dx":-1,"dy":-5},{"dx":0,"dy":-7},{"dx":0,"dy":-9},{"dx":0,"dy":-6},{"dx":0,"dy":-6},{"dx":0,"dy":-6},{"dx":0,"dy":0},{"dx":0,"dy":-1},{"dx":0,"dy":-1},{"dx":3,"dy":-5},{"dx":10,"dy":-6},{"dx":6,"dy":-4},{"dx":6,"dy":-3},{"dx":4,"dy":-2},{"dx":9,"dy":-1},{"dx":6,"dy":0},{"dx":6,"dy":0},{"dx":7,"dy":1},{"dx":13,"dy":2},{"dx":14,"dy":2},{"dx":23,"dy":8},{"dx":19,"dy":5},{"dx":12,"dy":4},{"dx":6,"dy":2},{"dx":13,"dy":7},{"dx":5,"dy":4},{"dx":8,"dy":5},{"dx":8,"dy":5},{"dx":5,"dy":4},{"dx":6,"dy":5},{"dx":14,"dy":11},{"dx":12,"dy":7},{"dx":10,"dy":8},{"dx":13,"dy":9},{"dx":11,"dy":6},{"dx":10,"dy":3},{"dx":15,"dy":7},{"dx":4,"dy":2},{"dx":7,"dy":3},{"dx":13,"dy":5},{"dx":7,"dy":2},{"dx":6,"dy":1},{"dx":13,"dy":2},{"dx":10,"dy":1},{"dx":6,"dy":1},{"dx":5,"dy":0},{"dx":5,"dy":0},{"dx":12,"dy":0},{"dx":17,"dy":-2},{"dx":10,"dy":-1},{"dx":10,"dy":-2},{"dx":7,"dy":-2},{"dx":5,"dy":-2},{"dx":4,"dy":-3},{"dx":16,"dy":-9},{"dx":16,"dy":-8},{"dx":12,"dy":-6},{"dx":16,"dy":-13},{"dx":3,"dy":-6},{"dx":0,"dy":-1},{"dx":2,"dy":-5},{"dx":0,"dy":-7},{"dx":0,"dy":0},{"dx":0,"dy":-2},{"dx":1,"dy":-6},{"dx":0,"dy":-6},{"dx":-4,"dy":-7},{"dx":-1,"dy":-1},{"dx":-3,"dy":-5},{"dx":-8,"dy":-8},{"dx":-8,"dy":-6},{"dx":-10,"dy":-6},{"dx":-16,"dy":-11},{"dx":-9,"dy":-5},{"dx":-10,"dy":-4},{"dx":-16,"dy":-8},{"dx":-10,"dy":-5},{"dx":-8,"dy":-3},{"dx":-8,"dy":-3},{"dx":-6,"dy":-3},{"dx":-7,"dy":-2},{"dx":-14,"dy":-5},{"dx":-5,"dy":-2},{"dx":-6,"dy":-2},{"dx":-6,"dy":-2},{"dx":-6,"dy":-2},{"dx":-13,"dy":-2},{"dx":-10,"dy":-1},{"dx":-9,"dy":-1},{"dx":-8,"dy":0},{"dx":-13,"dy":1},{"dx":-8,"dy":1},{"dx":-6,"dy":1},{"dx":-16,"dy":5},{"dx":-8,"dy":4},{"dx":-10,"dy":6},{"dx":-12,"dy":10},{"dx":-7,"dy":10},{"dx":-7,"dy":12},{"dx":-8,"dy":21},{"dx":-3,"dy":15},{"dx":1,"dy":15},{"dx":13,"dy":21},{"dx":17,"dy":17},{"dx":19,"dy":16},{"dx":23,"dy":16},{"dx":14,"dy":7},{"dx":13,"dy":7},{"dx":15,"dy":7},{"dx":10,"dy":4},{"dx":10,"dy":3},{"dx":7,"dy":3},{"dx":6,"dy":2},{"dx":6,"dy":2},{"dx":8,"dy":3},{"dx":5,"dy":1},{"dx":5,"dy":1},{"dx":8,"dy":2},{"dx":7,"dy":0},{"dx":14,"dy":2},{"dx":15,"dy":3},{"dx":6,"dy":2},{"dx":6,"dy":1},{"dx":4,"dy":0},{"dx":6,"dy":1},{"dx":5,"dy":0},{"dx":9,"dy":0},{"dx":5,"dy":0},{"dx":0,"dy":0},{"dx":5,"dy":-1},{"dx":5,"dy":-3},{"dx":6,"dy":-2},{"dx":16,"dy":-6},{"dx":9,"dy":-4},{"dx":6,"dy":-3},{"dx":5,"dy":-2},{"dx":6,"dy":-2},{"dx":7,"dy":-2},{"dx":13,"dy":-4},{"dx":5,"dy":-1},{"dx":1,"dy":-1},{"dx":5,"dy":-1},{"dx":7,"dy":-3},{"dx":5,"dy":-2},{"dx":6,"dy":-1},{"dx":9,"dy":-2},{"dx":1,"dy":0},{"dx":4,"dy":0},{"dx":5,"dy":-1},{"dx":6,"dy":0},{"dx":5,"dy":2},{"dx":8,"dy":4},{"dx":0,"dy":0},{"dx":0,"dy":0},{"dx":1,"dy":1},{"dx":0,"dy":0},{"dx":0,"dy":0},{"dx":0,"dy":0},{"dx":0,"dy":0},{"dx":0,"dy":0},{"dx":0,"dy":0},{"dx":0,"dy":0},{"dx":0,"dy":0},{"dx":0,"dy":0},{"dx":0,"dy":0},{"dx":0,"dy":0},{"dx":0,"dy":0},{"dx":0,"dy":0},{"dx":0,"dy":0},{"dx":0,"dy":0},{"dx":0,"dy":0},{"dx":0,"dy":0},{"dx":11,"dy":9},{"dx":12,"dy":12},{"dx":13,"dy":11},{"dx":20,"dy":16},{"dx":17,"dy":10},{"dx":16,"dy":10},{"dx":20,"dy":8},{"dx":17,"dy":4},{"dx":14,"dy":1},{"dx":21,"dy":1},{"dx":14,"dy":0},{"dx":12,"dy":-1},{"dx":14,"dy":-1},{"dx":9,"dy":0},{"dx":10,"dy":0},{"dx":15,"dy":0},{"dx":10,"dy":-1},{"dx":5,"dy":0},{"dx":11,"dy":0},{"dx":5,"dy":-1},{"dx":8,"dy":-1},{"dx":21,"dy":-3},{"dx":11,"dy":-3},{"dx":5,"dy":-3},{"dx":11,"dy":-6},{"dx":1,"dy":-1},{"dx":3,"dy":-4},{"dx":6,"dy":-10},{"dx":4,"dy":-6},{"dx":4,"dy":-9},{"dx":6,"dy":-15},{"dx":1,"dy":-8},{"dx":1,"dy":-8},{"dx":0,"dy":-9},{"dx":-2,"dy":-16},{"dx":-2,"dy":-13},{"dx":-3,"dy":-12},{"dx":-3,"dy":-8},{"dx":-3,"dy":-6},{"dx":-8,"dy":-15},{"dx":-5,"dy":-7},{"dx":-6,"dy":-7},{"dx":-4,"dy":-7},{"dx":-4,"dy":-4},{"dx":-4,"dy":-5},{"dx":-12,"dy":-12},{"dx":-8,"dy":-5},{"dx":-7,"dy":-5},{"dx":-16,"dy":-6},{"dx":-11,"dy":-6},{"dx":-13,"dy":-6},{"dx":-18,"dy":-5},{"dx":-15,"dy":-2},{"dx":-17,"dy":-1},{"dx":-31,"dy":0},{"dx":-17,"dy":1},{"dx":-18,"dy":2},{"dx":-30,"dy":3},{"dx":-18,"dy":2},{"dx":-14,"dy":2},{"dx":-21,"dy":3},{"dx":-13,"dy":2},{"dx":-10,"dy":3},{"dx":-8,"dy":4},{"dx":-9,"dy":3},{"dx":-7,"dy":4},{"dx":-11,"dy":9},{"dx":-7,"dy":8},{"dx":-5,"dy":10},{"dx":-10,"dy":20},{"dx":-9,"dy":12},{"dx":-8,"dy":12},{"dx":-13,"dy":23},{"dx":-9,"dy":15},{"dx":-8,"dy":15},{"dx":-12,"dy":18},{"dx":-4,"dy":6},{"dx":-6,"dy":6},{"dx":-9,"dy":9},{"dx":-6,"dy":7},{"dx":-8,"dy":6},{"dx":-9,"dy":6},{"dx":-6,"dy":4},{"dx":-5,"dy":2},{"dx":-8,"dy":2},{"dx":-7,"dy":2},{"dx":-6,"dy":2},{"dx":-6,"dy":1},{"dx":-5,"dy":2},{"dx":-4,"dy":2},{"dx":-9,"dy":2},{"dx":-7,"dy":2},{"dx":-6,"dy":1},{"dx":-4,"dy":1},{"dx":-5,"dy":1},{"dx":-4,"dy":3},{"dx":-11,"dy":4},{"dx":-6,"dy":2},{"dx":-6,"dy":1},{"dx":-6,"dy":2},{"dx":-7,"dy":3},{"dx":-11,"dy":4},{"dx":-14,"dy":3},{"dx":-8,"dy":2},{"dx":-7,"dy":1},{"dx":-6,"dy":1},{"dx":-13,"dy":2},{"dx":-5,"dy":0},{"dx":-15,"dy":0},{"dx":-8,"dy":0},{"dx":-5,"dy":-1},{"dx":-13,"dy":-3},{"dx":-8,"dy":-3},{"dx":-7,"dy":-4},{"dx":-13,"dy":-7},{"dx":-5,"dy":-3},{"dx":-7,"dy":-4},{"dx":-10,"dy":-6},{"dx":-6,"dy":-5},{"dx":-5,"dy":-5},{"dx":-4,"dy":-4},{"dx":-4,"dy":-4},{"dx":-2,"dy":-3},{"dx":-5,"dy":-5},{"dx":-3,"dy":-4},{"dx":-2,"dy":-4},{"dx":-4,"dy":-7},{"dx":-2,"dy":-5},{"dx":0,"dy":-4},{"dx":-2,"dy":-7},{"dx":0,"dy":-5},{"dx":0,"dy":-7},{"dx":1,"dy":-10},{"dx":2,"dy":-8}],"trial_type":"plugin-moving-dots-2","trial_index":6,"plugin_version":"0.0.1","time_elapsed":40552},{"task":"fixation","rt":1803,"stimulus":"<div style=\"font-size:60px;\">+</div>","response":" ","trial_type":"html-keyboard-response","trial_index":7,"plugin_version":"2.1.0","time_elapsed":42357},{"task":"movingdots","control_change":0,"mouse_data":[{"dx":0,"dy":0},{"dx":0,"dy":0},{"dx":0,"dy":0},{"dx":0,"dy":0},{"dx":0,"dy":0},{"dx":0,"dy":0},{"dx":0,"dy":0},{"dx":0,"dy":0},{"dx":0,"dy":0},{"dx":0,"dy":0},{"dx":0,"dy":0},{"dx":0,"dy":0},{"dx":0,"dy":0},{"dx":0,"dy":0},{"dx":0,"dy":0},{"dx":0,"dy":0},{"dx":0,"dy":0},{"dx":0,"dy":0},{"dx":0,"dy":0},{"dx":0,"dy":0},{"dx":0,"dy":0},{"dx":0,"dy":0},{"dx":0,"dy":0},{"dx":0,"dy":0},{"dx":0,"dy":0},{"dx":0,"dy":0},{"dx":0,"dy":0},{"dx":0,"dy":0},{"dx":0,"dy":0},{"dx":2,"dy":2},{"dx":1,"dy":0},{"dx":3,"dy":2},{"dx":5,"dy":0},{"dx":9,"dy":0},{"dx":16,"dy":-2},{"dx":11,"dy":-2},{"dx":11,"dy":-2},{"dx":11,"dy":-3},{"dx":8,"dy":-2},{"dx":6,"dy":-2},{"dx":11,"dy":-6},{"dx":7,"dy":-5},{"dx":8,"dy":-6},{"dx":9,"dy":-9},{"dx":6,"dy":-7},{"dx":5,"dy":-7},{"dx":3,"dy":-6},{"dx":2,"dy":-8},{"dx":1,"dy":-11},{"dx":-1,"dy":-14},{"dx":-1,"dy":-2},{"dx":-2,"dy":-4},{"dx":-1,"dy":-2},{"dx":-1,"dy":-1},{"dx":0,"dy":-1},{"dx":-1,"dy":-2},{"dx":0,"dy":-1},{"dx":0,"dy":0},{"dx":-1,"dy":-1},{"dx":-4,"dy":-2},{"dx":-4,"dy":-3},{"dx":0,"dy":0},{"dx":-1,"dy":0},{"dx":0,"dy":0},{"dx":0,"dy":0},{"dx":0,"dy":0},{"dx":-1,"dy":0},{"dx":0,"dy":6},{"dx":0,"dy":6},{"dx":-1,"dy":7},{"dx":-7,"dy":20},{"dx":-5,"dy":11},{"dx":-3,"dy":14},{"dx":-3,"dy":12},{"dx":-1,"dy":12},{"dx":0,"dy":7},{"dx":1,"dy":7},{"dx":9,"dy":10},{"dx":7,"dy":4},{"dx":6,"dy":0},{"dx":18,"dy":-3},{"dx":16,"dy":-7},{"dx":21,"dy":-12},{"dx":37,"dy":-27},{"dx":13,"dy":-17},{"dx":9,"dy":-12},{"dx":7,"dy":-17},{"dx":2,"dy":-5},{"dx":0,"dy":-1},{"dx":0,"dy":-1},{"dx":0,"dy":-1},{"dx":0,"dy":0},{"dx":0,"dy":0},{"dx":0,"dy":0},{"dx":-3,"dy":8},{"dx":-11,"dy":29},{"dx":-13,"dy":33},{"dx":-11,"dy":36},{"dx":-6,"dy":48},{"dx":-4,"dy":33},{"dx":-2,"dy":15},{"dx":-9,"dy":23},{"dx":-6,"dy":14},{"dx":-3,"dy":5},{"dx":-9,"dy":9},{"dx":-7,"dy":4},{"dx":-7,"dy":4},{"dx":-8,"dy":1},{"dx":-15,"dy":1},{"dx":-11,"dy":-1},{"dx":-8,"dy":-2},{"dx":-4,"dy":-3},{"dx":-4,"dy":-4},{"dx":-8,"dy":-18},{"dx":-2,"dy":-13},{"dx":0,"dy":-14},{"dx":8,"dy":-21},{"dx":5,"dy":-12},{"dx":6,"dy":-9},{"dx":18,"dy":-13},{"dx":14,"dy":-10},{"dx":16,"dy":-7},{"dx":20,"dy":-7},{"dx":10,"dy":-1},{"dx":14,"dy":2},{"dx":17,"dy":6},{"dx":10,"dy":4},{"dx":7,"dy":3},{"dx":8,"dy":4},{"dx":6,"dy":1},{"dx":5,"dy":1},{"dx":11,"dy":0},{"dx":9,"dy":-3},{"dx":10,"dy":-4},{"dx":14,"dy":-9},{"dx":6,"dy":-4},{"dx":3,"dy":-5},{"dx":4,"dy":-7},{"dx":3,"dy":-8},{"dx":1,"dy":-6},{"dx":1,"dy":-11},{"dx":0,"dy":-7},{"dx":-1,"dy":-7},{"dx":-1,"dy":-8},{"dx":-1,"dy":-6},{"dx":0,"dy":-1},{"dx":0,"dy":-2},{"dx":0,"dy":-1},{"dx":0,"dy":0},{"dx":0,"dy":0},{"dx":0,"dy":0},{"dx":0,"dy":0},{"dx":0,"dy":-1},{"dx":0,"dy":0},{"dx":0,"dy":0},{"dx":0,"dy":0},{"dx":0,"dy":0},{"dx":3,"dy":2},{"dx":4,"dy":14},{"dx":0,"dy":8},{"dx":0,"dy":16},{"dx":-4,"dy":21},{"dx":-2,"dy":8},{"dx":0,"dy":0},{"dx":-1,"dy":5},{"dx":-1,"dy":1},{"dx":0,"dy":0},{"dx":0,"dy":0},{"dx":0,"dy":0},{"dx":0,"dy":0},{"dx":3,"dy":-1},{"dx":5,"dy":-6},{"dx":5,"dy":-9},{"dx":13,"dy":-22},{"dx":12,"dy":-23},{"dx":11,"dy":-22},{"dx":14,"dy":-21},{"dx":7,"dy":-10},{"dx":2,"dy":-7},{"dx":4,"dy":-7},{"dx":3,"dy":-3},{"dx":4,"dy":-3},{"dx":5,"dy":-1},{"dx":4,"dy":0},{"dx":0,"dy":0},{"dx":4,"dy":4},{"dx":0,"dy":5},{"dx":0,"dy":8},{"dx":-2,"dy":16},{"dx":-4,"dy":13},{"dx":-5,"dy":14},{"dx":-6,"dy":17},{"dx":-2,"dy":6},{"dx":-1,"dy":6},{"dx":0,"dy":2},{"dx":0,"dy":1},{"dx":0,"dy":0},{"dx":0,"dy":0},{"dx":0,"dy":0},{"dx":3,"dy":-3},{"dx":8,"dy":-14},{"dx":6,"dy":-14},{"dx":5,"dy":-9},{"dx":5,"dy":-9},{"dx":3,"dy":-5},{"dx":3,"dy":-3},{"dx":5,"dy":-8},{"dx":1,"dy":0},{"dx":1,"dy":-1},{"dx":1,"dy":-1},{"dx":0,"dy":0},{"dx":2,"dy":0},{"dx":4,"dy":1},{"dx":1,"dy":1},{"dx":1,"dy":1},{"dx":3,"dy":3},{"dx":1,"dy":6},{"dx":0,"dy":6},{"dx":0,"dy":10},{"dx":0,"dy":1},{"dx":-1,"dy":7},{"dx":-4,"dy":11},{"dx":-2,"dy":6},{"dx":-1,"dy":5},{"dx":-1,"dy":7},{"dx":0,"dy":0},{"dx":0,"dy":1},{"dx":0,"dy":5},{"dx":0,"dy":2},{"dx":3,"dy":2},{"dx":4,"dy":2},{"dx":4,"dy":1},{"dx":5,"dy":0},{"dx":5,"dy":-2},{"dx":5,"dy":-3},{"dx":5,"dy":-2},{"dx":7,"dy":-7},{"dx":5,"dy":-6},{"dx":5,"dy":-6},{"dx":4,"dy":-5},{"dx":3,"dy":-5},{"dx":1,"dy":-1},{"dx":8,"dy":-7},{"dx":5,"dy":-3},{"dx":6,"dy":-4},{"dx":4,"dy":-3},{"dx":0,"dy":0},{"dx":1,"dy":0},{"dx":0,"dy":-1},{"dx":0,"dy":0},{"dx":0,"dy":0},{"dx":0,"dy":0},{"dx":0,"dy":0},{"dx":0,"dy":0},{"dx":-9,"dy":-5},{"dx":-14,"dy":0},{"dx":-15,"dy":1},{"dx":-23,"dy":10},{"dx":-12,"dy":7},{"dx":-8,"dy":9},{"dx":-7,"dy":13},{"dx":-4,"dy":9},{"dx":-1,"dy":6},{"dx":0,"dy":6},{"dx":1,"dy":5},{"dx":5,"dy":5},{"dx":13,"dy":4},{"dx":17,"dy":0},{"dx":10,"dy":-1},{"dx":10,"dy":-5},{"dx":15,"dy":-9},{"dx":10,"dy":-8},{"dx":10,"dy":-10},{"dx":14,"dy":-13},{"dx":4,"dy":-6},{"dx":3,"dy":-4},{"dx":3,"dy":-6},{"dx":0,"dy":0},{"dx":4,"dy":-4},{"dx":7,"dy":-8},{"dx":4,"dy":-2},{"dx":4,"dy":-2},{"dx":5,"dy":-2},{"dx":1,"dy":0},{"dx":1,"dy":-1},{"dx":1,"dy":-1},{"dx":1,"dy":0},{"dx":0,"dy":0},{"dx":1,"dy":0},{"dx":3,"dy":1},{"dx":5,"dy":5},{"dx":0,"dy":0},{"dx":1,"dy":0},{"dx":0,"dy":0},{"dx":0,"dy":0},{"dx":-5,"dy":0},{"dx":-7,"dy":-1},{"dx":-18,"dy":-5},{"dx":-13,"dy":-3},{"dx":-13,"dy":-3},{"dx":-16,"dy":-1},{"dx":-10,"dy":1},{"dx":-15,"dy":5},{"dx":-25,"dy":17},{"dx":-12,"dy":12},{"dx":-7,"dy":9},{"dx":-2,"dy":7},{"dx":0,"dy":5},{"dx":1,"dy":6},{"dx":13,"dy":18},{"dx":10,"dy":8},{"dx":13,"dy":8},{"dx":21,"dy":1},{"dx":18,"dy":-3},{"dx":12,"dy":-7},{"dx":17,"dy":-12},{"dx":8,"dy":-10},{"dx":7,"dy":-10},{"dx":7,"dy":-12},{"dx":3,"dy":-7},{"dx":0,"dy":-5},{"dx":0,"dy":-7},{"dx":0,"dy":-1},{"dx":0,"dy":-1},{"dx":-1,"dy":-2},{"dx":0,"dy":0},{"dx":0,"dy":0},{"dx":-9,"dy":5},{"dx":-7,"dy":9},{"dx":-7,"dy":14},{"dx":-10,"dy":31},{"dx":-4,"dy":18},{"dx":0,"dy":15},{"dx":2,"dy":13},{"dx":4,"dy":9},{"dx":4,"dy":5},{"dx":6,"dy":6},{"dx":5,"dy":2},{"dx":6,"dy":1},{"dx":7,"dy":0},{"dx":7,"dy":-2},{"dx":10,"dy":-7},{"dx":7,"dy":-7},{"dx":5,"dy":-6},{"dx":8,"dy":-15},{"dx":3,"dy":-20},{"dx":-7,"dy":-23},{"dx":-12,"dy":-23},{"dx":-28,"dy":-36},{"dx":-20,"dy":-17},{"dx":-20,"dy":-14},{"dx":-38,"dy":-22},{"dx":-28,"dy":-13},{"dx":-30,"dy":-10},{"dx":-35,"dy":-8},{"dx":-18,"dy":-2},{"dx":-16,"dy":-1},{"dx":-30,"dy":0},{"dx":-18,"dy":2},{"dx":-18,"dy":4},{"dx":-22,"dy":9},{"dx":-16,"dy":8},{"dx":-20,"dy":12},{"dx":-30,"dy":20},{"dx":-19,"dy":13},{"dx":-14,"dy":9},{"dx":-20,"dy":18},{"dx":-25,"dy":25},{"dx":-20,"dy":17},{"dx":-25,"dy":22},{"dx":-12,"dy":12},{"dx":-13,"dy":11},{"dx":-28,"dy":16},{"dx":-19,"dy":12},{"dx":-25,"dy":18},{"dx":-27,"dy":20},{"dx":-14,"dy":5},{"dx":-15,"dy":4},{"dx":-25,"dy":5},{"dx":-16,"dy":4},{"dx":-14,"dy":3},{"dx":-23,"dy":3},{"dx":-19,"dy":1},{"dx":-20,"dy":0},{"dx":-28,"dy":-5},{"dx":-25,"dy":-8},{"dx":-23,"dy":-13},{"dx":-39,"dy":-22},{"dx":-26,"dy":-13},{"dx":-28,"dy":-13},{"dx":-25,"dy":-17},{"dx":-15,"dy":-10},{"dx":-12,"dy":-10},{"dx":-15,"dy":-11},{"dx":-8,"dy":-7},{"dx":-7,"dy":-8},{"dx":-10,"dy":-11},{"dx":-4,"dy":-8},{"dx":-4,"dy":-8},{"dx":-3,"dy":-11},{"dx":-1,"dy":-8},{"dx":0,"dy":-13},{"dx":11,"dy":-15},{"dx":13,"dy":-14},{"dx":22,"dy":-19},{"dx":46,"dy":-28},{"dx":33,"dy":-13},{"dx":33,"dy":-11},{"dx":39,"dy":-5},{"dx":22,"dy":1},{"dx":16,"dy":4},{"dx":15,"dy":11},{"dx":9,"dy":10},{"dx":10,"dy":18},{"dx":22,"dy":32},{"dx":15,"dy":27},{"dx":10,"dy":24},{"dx":17,"dy":40},{"dx":13,"dy":20},{"dx":14,"dy":18},{"dx":20,"dy":24},{"dx":19,"dy":13},{"dx":13,"dy":8},{"dx":18,"dy":12},{"dx":12,"dy":6},{"dx":23,"dy":7},{"dx":26,"dy":3},{"dx":19,"dy":-2},{"dx":17,"dy":-5},{"dx":28,"dy":-5},{"dx":16,"dy":-4},{"dx":22,"dy":-6},{"dx":33,"dy":-12},{"dx":22,"dy":-12},{"dx":20,"dy":-14},{"dx":17,"dy":-17},{"dx":8,"dy":-13},{"dx":6,"dy":-14},{"dx":6,"dy":-25},{"dx":0,"dy":-16},{"dx":-3,"dy":-18},{"dx":-19,"dy":-42},{"dx":-27,"dy":-27},{"dx":-34,"dy":-24},{"dx":-57,"dy":-35},{"dx":-43,"dy":-15},{"dx":-47,"dy":-8},{"dx":-83,"dy":-4},{"dx":-58,"dy":7},{"dx":-50,"dy":11},{"dx":-65,"dy":22},{"dx":-39,"dy":17},{"dx":-49,"dy":22}],"trial_type":"plugin-moving-dots-2","trial_index":8,"plugin_version":"0.0.1","time_elapsed":49869},{"task":"fixation","rt":1943,"stimulus":"<div style=\"font-size:60px;\">+</div>","response":" ","trial_type":"html-keyboard-response","trial_index":9,"plugin_version":"2.1.0","time_elapsed":51812},{"task":"movingdots","control_change":0,"mouse_data":[{"dx":0,"dy":0},{"dx":0,"dy":0},{"dx":0,"dy":0},{"dx":0,"dy":0},{"dx":0,"dy":0},{"dx":0,"dy":0},{"dx":0,"dy":0},{"dx":0,"dy":0},{"dx":0,"dy":0},{"dx":0,"dy":0},{"dx":0,"dy":0},{"dx":0,"dy":0},{"dx":0,"dy":0},{"dx":0,"dy":0},{"dx":0,"dy":0},{"dx":0,"dy":0},{"dx":0,"dy":0},{"dx":0,"dy":0},{"dx":0,"dy":0},{"dx":0,"dy":0},{"dx":0,"dy":0},{"dx":0,"dy":0},{"dx":0,"dy":0},{"dx":0,"dy":0},{"dx":0,"dy":0},{"dx":0,"dy":0},{"dx":0,"dy":0},{"dx":0,"dy":0},{"dx":0,"dy":0},{"dx":0,"dy":0},{"dx":0,"dy":0},{"dx":0,"dy":0},{"dx":0,"dy":0},{"dx":0,"dy":0},{"dx":0,"dy":0},{"dx":0,"dy":0},{"dx":0,"dy":0},{"dx":-2,"dy":2},{"dx":-3,"dy":2},{"dx":-4,"dy":4},{"dx":-5,"dy":3},{"dx":-6,"dy":4},{"dx":-4,"dy":5},{"dx":-4,"dy":5},{"dx":-6,"dy":6},{"dx":-9,"dy":8},{"dx":-6,"dy":2},{"dx":-4,"dy":3},{"dx":-4,"dy":1},{"dx":-5,"dy":2},{"dx":-5,"dy":1},{"dx":-19,"dy":6},{"dx":-11,"dy":4},{"dx":-10,"dy":4},{"dx":-16,"dy":6},{"dx":-13,"dy":7},{"dx":-14,"dy":7},{"dx":-18,"dy":7},{"dx":-13,"dy":3},{"dx":-12,"dy":2},{"dx":-19,"dy":3},{"dx":-14,"dy":1},{"dx":-14,"dy":3},{"dx":-22,"dy":3},{"dx":-14,"dy":2},{"dx":-16,"dy":0},{"dx":-18,"dy":1},{"dx":-12,"dy":0},{"dx":-14,"dy":-2},{"dx":-14,"dy":-3},{"dx":-9,"dy":-3},{"dx":-8,"dy":-4},{"dx":-9,"dy":-4},{"dx":-6,"dy":-3},{"dx":-6,"dy":-3},{"dx":-10,"dy":-7},{"dx":-6,"dy":-3},{"dx":-6,"dy":-4},{"dx":-6,"dy":-4},{"dx":-4,"dy":-3},{"dx":-4,"dy":-3},{"dx":-6,"dy":-6},{"dx":-3,"dy":-4},{"dx":-3,"dy":-5},{"dx":-3,"dy":-5},{"dx":-3,"dy":-4},{"dx":-2,"dy":-5},{"dx":-4,"dy":-6},{"dx":-2,"dy":-5},{"dx":-2,"dy":-7},{"dx":-3,"dy":-6},{"dx":-2,"dy":-6},{"dx":-2,"dy":-5},{"dx":-1,"dy":-1},{"dx":0,"dy":-1},{"dx":0,"dy":0},{"dx":0,"dy":0},{"dx":0,"dy":0},{"dx":0,"dy":0},{"dx":0,"dy":0},{"dx":0,"dy":0},{"dx":0,"dy":0},{"dx":4,"dy":1},{"dx":8,"dy":5},{"dx":4,"dy":2},{"dx":4,"dy":3},{"dx":6,"dy":2},{"dx":5,"dy":2},{"dx":5,"dy":2},{"dx":11,"dy":1},{"dx":6,"dy":0},{"dx":10,"dy":-5},{"dx":19,"dy":-15},{"dx":14,"dy":-15},{"dx":14,"dy":-17},{"dx":18,"dy":-27},{"dx":11,"dy":-17},{"dx":7,"dy":-14},{"dx":6,"dy":-14},{"dx":1,"dy":-7},{"dx":0,"dy":-6},{"dx":-1,"dy":-8},{"dx":-3,"dy":-4},{"dx":-3,"dy":-4},{"dx":-4,"dy":-3},{"dx":-6,"dy":-4},{"dx":-5,"dy":-1},{"dx":-12,"dy":3},{"dx":-5,"dy":4},{"dx":-5,"dy":4},{"dx":-7,"dy":11},{"dx":-2,"dy":5},{"dx":-1,"dy":4},{"dx":0,"dy":6},{"dx":0,"dy":6},{"dx":0,"dy":5},{"dx":0,"dy":5},{"dx":0,"dy":1},{"dx":0,"dy":5},{"dx":-3,"dy":12},{"dx":-1,"dy":8},{"dx":0,"dy":8},{"dx":-1,"dy":7},{"dx":-2,"dy":8},{"dx":-3,"dy":14},{"dx":-3,"dy":14},{"dx":-1,"dy":5},{"dx":0,"dy":1},{"dx":-1,"dy":5},{"dx":-2,"dy":5},{"dx":-3,"dy":4},{"dx":-4,"dy":6},{"dx":-2,"dy":5},{"dx":0,"dy":0},{"dx":-1,"dy":1},{"dx":0,"dy":0},{"dx":0,"dy":0},{"dx":10,"dy":-17},{"dx":6,"dy":-13},{"dx":6,"dy":-12},{"dx":5,"dy":-13},{"dx":3,"dy":-9},{"dx":2,"dy":-5},{"dx":6,"dy":-7},{"dx":6,"dy":-4},{"dx":5,"dy":-3},{"dx":8,"dy":-2},{"dx":6,"dy":0},{"dx":6,"dy":2},{"dx":5,"dy":2},{"dx":4,"dy":3},{"dx":1,"dy":1},{"dx":2,"dy":4},{"dx":2,"dy":6},{"dx":0,"dy":6},{"dx":0,"dy":9},{"dx":0,"dy":9},{"dx":-1,"dy":6},{"dx":-1,"dy":10},{"dx":0,"dy":6},{"dx":-1,"dy":12},{"dx":0,"dy":11},{"dx":0,"dy":6},{"dx":0,"dy":0},{"dx":0,"dy":2},{"dx":0,"dy":2},{"dx":1,"dy":0},{"dx":5,"dy":2},{"dx":6,"dy":-5},{"dx":7,"dy":-11},{"dx":14,"dy":-28},{"dx":8,"dy":-13},{"dx":8,"dy":-15},{"dx":13,"dy":-16},{"dx":12,"dy":-10},{"dx":12,"dy":-6},{"dx":11,"dy":-5},{"dx":6,"dy":-3},{"dx":6,"dy":-2},{"dx":5,"dy":-1},{"dx":5,"dy":0},{"dx":0,"dy":0},{"dx":0,"dy":0},{"dx":0,"dy":0},{"dx":0,"dy":0},{"dx":-5,"dy":-2},{"dx":-7,"dy":0},{"dx":-13,"dy":1},{"dx":-16,"dy":9},{"dx":-10,"dy":11},{"dx":-13,"dy":21},{"dx":-12,"dy":21},{"dx":-5,"dy":15},{"dx":-4,"dy":17},{"dx":-2,"dy":13},{"dx":0,"dy":5},{"dx":2,"dy":5},{"dx":3,"dy":5},{"dx":6,"dy":4},{"dx":7,"dy":0},{"dx":16,"dy":-4},{"dx":8,"dy":-2},{"dx":6,"dy":-2},{"dx":16,"dy":-17},{"dx":9,"dy":-16},{"dx":6,"dy":-13},{"dx":4,"dy":-23},{"dx":0,"dy":-10},{"dx":-3,"dy":-11},{"dx":-3,"dy":-7},{"dx":-3,"dy":-2},{"dx":-5,"dy":-4},{"dx":-4,"dy":-1},{"dx":-6,"dy":-1},{"dx":-5,"dy":2},{"dx":-4,"dy":5},{"dx":-1,"dy":6},{"dx":0,"dy":5},{"dx":2,"dy":6},{"dx":3,"dy":3},{"dx":0,"dy":1},{"dx":10,"dy":0},{"dx":0,"dy":0},{"dx":4,"dy":0},{"dx":2,"dy":-1},{"dx":5,"dy":-1},{"dx":0,"dy":0},{"dx":1,"dy":-1},{"dx":5,"dy":0},{"dx":5,"dy":0},{"dx":11,"dy":-2},{"dx":24,"dy":-6},{"dx":29,"dy":-13},{"dx":54,"dy":-40},{"dx":35,"dy":-36},{"dx":33,"dy":-30},{"dx":25,"dy":-29},{"dx":6,"dy":-12},{"dx":2,"dy":-7},{"dx":1,"dy":-1},{"dx":1,"dy":-4},{"dx":0,"dy":-1},{"dx":0,"dy":-1},{"dx":0,"dy":-1},{"dx":0,"dy":0},{"dx":-1,"dy":-1},{"dx":-2,"dy":0},{"dx":-4,"dy":3},{"dx":-6,"dy":11},{"dx":-12,"dy":23},{"dx":-11,"dy":19},{"dx":-14,"dy":26},{"dx":-8,"dy":17},{"dx":-7,"dy":13},{"dx":-11,"dy":17},{"dx":-7,"dy":13},{"dx":-6,"dy":11},{"dx":-2,"dy":5},{"dx":-2,"dy":6},{"dx":-1,"dy":6},{"dx":-2,"dy":6},{"dx":-2,"dy":6},{"dx":-1,"dy":6},{"dx":0,"dy":0},{"dx":0,"dy":2},{"dx":0,"dy":0},{"dx":0,"dy":0},{"dx":-3,"dy":11},{"dx":-1,"dy":6},{"dx":-1,"dy":8},{"dx":0,"dy":6},{"dx":0,"dy":1},{"dx":0,"dy":1},{"dx":0,"dy":0},{"dx":0,"dy":0},{"dx":0,"dy":0},{"dx":0,"dy":0},{"dx":0,"dy":0},{"dx":0,"dy":0},{"dx":0,"dy":1},{"dx":0,"dy":0},{"dx":0,"dy":1},{"dx":2,"dy":5},{"dx":0,"dy":0},{"dx":5,"dy":3},{"dx":10,"dy":1},{"dx":10,"dy":-6},{"dx":20,"dy":-22},{"dx":29,"dy":-31},{"dx":22,"dy":-31},{"dx":13,"dy":-21},{"dx":3,"dy":-5},{"dx":4,"dy":-8},{"dx":12,"dy":-18},{"dx":11,"dy":-13},{"dx":10,"dy":-11},{"dx":4,"dy":-5},{"dx":2,"dy":-4},{"dx":0,"dy":0},{"dx":0,"dy":0},{"dx":-4,"dy":0},{"dx":-1,"dy":0},{"dx":-9,"dy":5},{"dx":-5,"dy":4},{"dx":-9,"dy":12},{"dx":-18,"dy":26},{"dx":-9,"dy":10},{"dx":-9,"dy":12},{"dx":-12,"dy":16},{"dx":-5,"dy":10},{"dx":-4,"dy":5},{"dx":-3,"dy":7},{"dx":-9,"dy":21},{"dx":-3,"dy":18},{"dx":-2,"dy":8},{"dx":-1,"dy":5},{"dx":0,"dy":1},{"dx":0,"dy":2},{"dx":0,"dy":0},{"dx":0,"dy":0},{"dx":-1,"dy":6},{"dx":0,"dy":6},{"dx":0,"dy":1},{"dx":0,"dy":6},{"dx":0,"dy":1},{"dx":0,"dy":0},{"dx":0,"dy":1},{"dx":2,"dy":4},{"dx":1,"dy":1},{"dx":3,"dy":3},{"dx":4,"dy":1},{"dx":5,"dy":0},{"dx":6,"dy":-2},{"dx":9,"dy":-7},{"dx":13,"dy":-12},{"dx":13,"dy":-9},{"dx":21,"dy":-8},{"dx":19,"dy":-10},{"dx":16,"dy":-13},{"dx":29,"dy":-24},{"dx":12,"dy":-9},{"dx":10,"dy":-7},{"dx":0,"dy":0},{"dx":1,"dy":-1},{"dx":1,"dy":-1},{"dx":0,"dy":0},{"dx":0,"dy":0},{"dx":0,"dy":0},{"dx":0,"dy":0},{"dx":0,"dy":0},{"dx":0,"dy":0},{"dx":0,"dy":-1},{"dx":-6,"dy":-1},{"dx":-3,"dy":-2},{"dx":-11,"dy":-7},{"dx":-13,"dy":-12},{"dx":-44,"dy":-28},{"dx":-44,"dy":-27},{"dx":-53,"dy":-21},{"dx":-52,"dy":-15},{"dx":-15,"dy":-2},{"dx":-6,"dy":0},{"dx":-5,"dy":0},{"dx":-2,"dy":0},{"dx":0,"dy":0},{"dx":0,"dy":0},{"dx":6,"dy":8},{"dx":11,"dy":8},{"dx":12,"dy":9},{"dx":8,"dy":6},{"dx":17,"dy":11},{"dx":37,"dy":18},{"dx":31,"dy":13},{"dx":28,"dy":8},{"dx":17,"dy":5},{"dx":21,"dy":3},{"dx":10,"dy":1},{"dx":5,"dy":1},{"dx":7,"dy":1},{"dx":4,"dy":2},{"dx":0,"dy":0},{"dx":0,"dy":0},{"dx":0,"dy":0},{"dx":0,"dy":0},{"dx":0,"dy":0},{"dx":0,"dy":0},{"dx":0,"dy":0},{"dx":0,"dy":0},{"dx":-4,"dy":0},{"dx":-4,"dy":-2},{"dx":-1,"dy":0},{"dx":-1,"dy":0},{"dx":0,"dy":0},{"dx":-1,"dy":0},{"dx":-4,"dy":3},{"dx":-7,"dy":11},{"dx":-7,"dy":14},{"dx":-2,"dy":5},{"dx":-3,"dy":8},{"dx":-5,"dy":16},{"dx":0,"dy":15},{"dx":0,"dy":16},{"dx":4,"dy":18},{"dx":7,"dy":14},{"dx":9,"dy":11},{"dx":13,"dy":13},{"dx":11,"dy":5},{"dx":9,"dy":3},{"dx":16,"dy":4},{"dx":12,"dy":1},{"dx":11,"dy":0},{"dx":21,"dy":-4},{"dx":13,"dy":-5},{"dx":6,"dy":-4},{"dx":22,"dy":-30},{"dx":13,"dy":-17},{"dx":6,"dy":-16},{"dx":6,"dy":-42},{"dx":1,"dy":-16},{"dx":-1,"dy":-15},{"dx":-5,"dy":-18},{"dx":-3,"dy":-4},{"dx":-5,"dy":-7},{"dx":-11,"dy":-7},{"dx":-5,"dy":-1},{"dx":-4,"dy":0},{"dx":-2,"dy":0},{"dx":0,"dy":0},{"dx":-2,"dy":1},{"dx":0,"dy":1},{"dx":0,"dy":5},{"dx":0,"dy":5},{"dx":0,"dy":6}],"trial_type":"plugin-moving-dots-2","trial_index":10,"plugin_version":"0.0.1","time_elapsed":59319},{"task":"fixation","rt":1756,"stimulus":"<div style=\"font-size:60px;\">+</div>","response":" ","trial_type":"html-keyboard-response","trial_index":11,"plugin_version":"2.1.0","time_elapsed":61077},{"task":"movingdots","control_change":0,"mouse_data":[{"dx":0,"dy":0},{"dx":0,"dy":0},{"dx":0,"dy":0},{"dx":0,"dy":0},{"dx":0,"dy":0},{"dx":0,"dy":0},{"dx":0,"dy":0},{"dx":0,"dy":0},{"dx":0,"dy":0},{"dx":0,"dy":0},{"dx":0,"dy":0},{"dx":0,"dy":0},{"dx":0,"dy":0},{"dx":0,"dy":0},{"dx":0,"dy":0},{"dx":0,"dy":0},{"dx":0,"dy":0},{"dx":0,"dy":0},{"dx":0,"dy":0},{"dx":0,"dy":0},{"dx":0,"dy":0},{"dx":0,"dy":0},{"dx":0,"dy":0},{"dx":0,"dy":0},{"dx":0,"dy":0},{"dx":0,"dy":0},{"dx":0,"dy":0},{"dx":0,"dy":0},{"dx":0,"dy":0},{"dx":0,"dy":0},{"dx":0,"dy":0},{"dx":0,"dy":0},{"dx":0,"dy":0},{"dx":0,"dy":0},{"dx":0,"dy":0},{"dx":0,"dy":0},{"dx":0,"dy":0},{"dx":0,"dy":0},{"dx":0,"dy":0},{"dx":0,"dy":0},{"dx":-3,"dy":0},{"dx":-9,"dy":4},{"dx":-3,"dy":3},{"dx":-1,"dy":0},{"dx":-1,"dy":1},{"dx":0,"dy":0},{"dx":0,"dy":0},{"dx":-1,"dy":1},{"dx":-5,"dy":2},{"dx":-4,"dy":1},{"dx":-5,"dy":1},{"dx":-6,"dy":1},{"dx":-1,"dy":0},{"dx":-5,"dy":2},{"dx":-5,"dy":2},{"dx":-10,"dy":3},{"dx":-18,"dy":5},{"dx":-12,"dy":4},{"dx":-15,"dy":3},{"dx":-20,"dy":3},{"dx":-14,"dy":3},{"dx":-17,"dy":3},{"dx":-19,"dy":4},{"dx":-13,"dy":2},{"dx":-13,"dy":0},{"dx":-16,"dy":-1},{"dx":-15,"dy":-2},{"dx":-14,"dy":0},{"dx":-18,"dy":1},{"dx":-11,"dy":1},{"dx":-15,"dy":1},{"dx":-15,"dy":1},{"dx":-11,"dy":0},{"dx":-13,"dy":-1},{"dx":-15,"dy":1},{"dx":-9,"dy":0},{"dx":-11,"dy":0},{"dx":-19,"dy":-1},{"dx":-9,"dy":-4},{"dx":-5,"dy":-2},{"dx":-13,"dy":-9},{"dx":-4,"dy":-5},{"dx":-4,"dy":-6},{"dx":-10,"dy":-17},{"dx":-6,"dy":-16},{"dx":-5,"dy":-13},{"dx":-9,"dy":-17},{"dx":-6,"dy":-10},{"dx":-5,"dy":-10},{"dx":-6,"dy":-18},{"dx":-3,"dy":-14},{"dx":-2,"dy":-13},{"dx":0,"dy":-16},{"dx":0,"dy":-7},{"dx":1,"dy":-10},{"dx":4,"dy":-22},{"dx":3,"dy":-11},{"dx":5,"dy":-12},{"dx":6,"dy":-18},{"dx":4,"dy":-9},{"dx":3,"dy":-5},{"dx":3,"dy":-5},{"dx":3,"dy":-4},{"dx":4,"dy":-4},{"dx":7,"dy":-7},{"dx":0,"dy":-1},{"dx":4,"dy":-2},{"dx":0,"dy":-1},{"dx":0,"dy":0},{"dx":5,"dy":-3},{"dx":17,"dy":-7},{"dx":16,"dy":-3},{"dx":15,"dy":-2},{"dx":25,"dy":-1},{"dx":12,"dy":0},{"dx":12,"dy":2},{"dx":20,"dy":7},{"dx":13,"dy":8},{"dx":14,"dy":12},{"dx":18,"dy":24},{"dx":10,"dy":15},{"dx":10,"dy":13},{"dx":17,"dy":26},{"dx":18,"dy":23},{"dx":18,"dy":23},{"dx":12,"dy":21},{"dx":12,"dy":23},{"dx":9,"dy":14},{"dx":10,"dy":14},{"dx":16,"dy":17},{"dx":10,"dy":10},{"dx":10,"dy":8},{"dx":13,"dy":10},{"dx":8,"dy":5},{"dx":10,"dy":3},{"dx":20,"dy":4},{"dx":13,"dy":2},{"dx":11,"dy":1},{"dx":19,"dy":3},{"dx":14,"dy":3},{"dx":11,"dy":2},{"dx":18,"dy":2},{"dx":11,"dy":2},{"dx":10,"dy":1},{"dx":8,"dy":0},{"dx":7,"dy":3},{"dx":11,"dy":3},{"dx":22,"dy":1},{"dx":16,"dy":-2},{"dx":16,"dy":-4},{"dx":20,"dy":-10},{"dx":11,"dy":-9},{"dx":21,"dy":-19},{"dx":50,"dy":-44},{"dx":42,"dy":-38},{"dx":43,"dy":-33},{"dx":49,"dy":-33},{"dx":23,"dy":-20},{"dx":19,"dy":-17},{"dx":25,"dy":-21},{"dx":16,"dy":-13},{"dx":12,"dy":-12},{"dx":17,"dy":-16},{"dx":7,"dy":-9},{"dx":3,"dy":-6},{"dx":2,"dy":-5},{"dx":1,"dy":-7},{"dx":2,"dy":-5},{"dx":0,"dy":-6},{"dx":-1,"dy":-6},{"dx":-3,"dy":-5},{"dx":-10,"dy":-10},{"dx":-13,"dy":-9},{"dx":-13,"dy":-9},{"dx":-29,"dy":-18},{"dx":-19,"dy":-9},{"dx":-18,"dy":-10},{"dx":-25,"dy":-8},{"dx":-20,"dy":-6},{"dx":-28,"dy":-7},{"dx":-35,"dy":-7},{"dx":-17,"dy":-2},{"dx":-17,"dy":-1},{"dx":-30,"dy":3},{"dx":-28,"dy":7},{"dx":-26,"dy":9},{"dx":-34,"dy":17},{"dx":-13,"dy":9},{"dx":-11,"dy":8},{"dx":-26,"dy":24},{"dx":-31,"dy":30},{"dx":-35,"dy":47},{"dx":-18,"dy":29},{"dx":-12,"dy":26},{"dx":-5,"dy":24},{"dx":-3,"dy":23},{"dx":0,"dy":21},{"dx":-2,"dy":18},{"dx":-3,"dy":25},{"dx":-3,"dy":15},{"dx":-2,"dy":7},{"dx":-9,"dy":18},{"dx":-6,"dy":11},{"dx":-8,"dy":13},{"dx":-12,"dy":13},{"dx":-7,"dy":9},{"dx":-8,"dy":9},{"dx":-12,"dy":17},{"dx":-8,"dy":8},{"dx":-8,"dy":7},{"dx":-15,"dy":11},{"dx":-13,"dy":16},{"dx":-11,"dy":14},{"dx":-15,"dy":14},{"dx":-12,"dy":7},{"dx":-13,"dy":9},{"dx":-19,"dy":14},{"dx":-10,"dy":7},{"dx":-11,"dy":6},{"dx":-13,"dy":4},{"dx":-8,"dy":2},{"dx":-10,"dy":2},{"dx":-15,"dy":1},{"dx":-10,"dy":0},{"dx":-11,"dy":-1},{"dx":-17,"dy":-6},{"dx":-10,"dy":-4},{"dx":-11,"dy":-6},{"dx":-17,"dy":-10},{"dx":-13,"dy":-5},{"dx":-11,"dy":-5},{"dx":-21,"dy":-7},{"dx":-12,"dy":-6},{"dx":-9,"dy":-7},{"dx":-12,"dy":-10},{"dx":-14,"dy":-8},{"dx":-13,"dy":-11},{"dx":-22,"dy":-20},{"dx":-15,"dy":-14},{"dx":-12,"dy":-10},{"dx":-14,"dy":-12},{"dx":-10,"dy":-7},{"dx":-12,"dy":-11},{"dx":-18,"dy":-18},{"dx":-8,"dy":-12},{"dx":-5,"dy":-11},{"dx":-4,"dy":-6},{"dx":-2,"dy":-5},{"dx":-1,"dy":-5},{"dx":-2,"dy":-18},{"dx":0,"dy":-12},{"dx":0,"dy":-7},{"dx":1,"dy":-15},{"dx":1,"dy":-13},{"dx":3,"dy":-16},{"dx":12,"dy":-22},{"dx":10,"dy":-16},{"dx":9,"dy":-10},{"dx":5,"dy":-7},{"dx":4,"dy":-3},{"dx":4,"dy":-2},{"dx":20,"dy":-5},{"dx":13,"dy":-3},{"dx":15,"dy":-2},{"dx":26,"dy":-2},{"dx":11,"dy":1},{"dx":12,"dy":3},{"dx":20,"dy":5},{"dx":14,"dy":5},{"dx":21,"dy":6},{"dx":26,"dy":12},{"dx":15,"dy":8},{"dx":19,"dy":12},{"dx":26,"dy":18},{"dx":18,"dy":14},{"dx":18,"dy":17},{"dx":23,"dy":27},{"dx":10,"dy":14},{"dx":10,"dy":10},{"dx":15,"dy":14},{"dx":10,"dy":9},{"dx":19,"dy":11},{"dx":21,"dy":13},{"dx":13,"dy":9},{"dx":15,"dy":10},{"dx":19,"dy":14},{"dx":12,"dy":8},{"dx":14,"dy":6},{"dx":18,"dy":5},{"dx":12,"dy":2},{"dx":10,"dy":2},{"dx":17,"dy":4},{"dx":8,"dy":4},{"dx":10,"dy":4},{"dx":17,"dy":5},{"dx":11,"dy":3},{"dx":5,"dy":3},{"dx":12,"dy":4},{"dx":6,"dy":2},{"dx":7,"dy":3},{"dx":8,"dy":2},{"dx":6,"dy":2},{"dx":4,"dy":2},{"dx":5,"dy":0},{"dx":1,"dy":0},{"dx":1,"dy":0},{"dx":6,"dy":-5},{"dx":17,"dy":-26},{"dx":27,"dy":-38},{"dx":37,"dy":-48},{"dx":12,"dy":-14},{"dx":10,"dy":-10},{"dx":13,"dy":-16},{"dx":9,"dy":-13},{"dx":7,"dy":-12},{"dx":8,"dy":-19},{"dx":3,"dy":-11},{"dx":2,"dy":-13},{"dx":0,"dy":-25},{"dx":-1,"dy":-20},{"dx":-5,"dy":-22},{"dx":-10,"dy":-18},{"dx":-16,"dy":-16},{"dx":-11,"dy":-7},{"dx":-11,"dy":-4},{"dx":-17,"dy":-4},{"dx":-13,"dy":0},{"dx":-26,"dy":2},{"dx":-15,"dy":6},{"dx":-20,"dy":12},{"dx":-27,"dy":19},{"dx":-22,"dy":24},{"dx":-10,"dy":15},{"dx":-12,"dy":18},{"dx":-12,"dy":23},{"dx":-5,"dy":29},{"dx":-2,"dy":30},{"dx":0,"dy":44},{"dx":-1,"dy":18},{"dx":-1,"dy":15},{"dx":-2,"dy":23},{"dx":-2,"dy":15},{"dx":-4,"dy":22},{"dx":-4,"dy":27},{"dx":-2,"dy":6},{"dx":-1,"dy":7},{"dx":-1,"dy":8},{"dx":0,"dy":6},{"dx":0,"dy":5},{"dx":0,"dy":6},{"dx":0,"dy":6},{"dx":0,"dy":4},{"dx":1,"dy":6},{"dx":1,"dy":6},{"dx":1,"dy":1},{"dx":1,"dy":4},{"dx":3,"dy":6},{"dx":2,"dy":5},{"dx":2,"dy":6},{"dx":0,"dy":1},{"dx":2,"dy":4},{"dx":4,"dy":5},{"dx":3,"dy":5},{"dx":4,"dy":4},{"dx":5,"dy":2},{"dx":0,"dy":0},{"dx":2,"dy":0},{"dx":0,"dy":0},{"dx":0,"dy":0},{"dx":0,"dy":0},{"dx":0,"dy":0},{"dx":0,"dy":0},{"dx":0,"dy":0},{"dx":0,"dy":0},{"dx":0,"dy":0},{"dx":0,"dy":0},{"dx":0,"dy":0},{"dx":0,"dy":0},{"dx":0,"dy":0},{"dx":0,"dy":0},{"dx":0,"dy":0},{"dx":0,"dy":0},{"dx":0,"dy":0},{"dx":0,"dy":0},{"dx":0,"dy":0},{"dx":0,"dy":0},{"dx":0,"dy":0},{"dx":0,"dy":0},{"dx":0,"dy":0},{"dx":0,"dy":0},{"dx":0,"dy":0},{"dx":0,"dy":0},{"dx":0,"dy":0},{"dx":28,"dy":-13},{"dx":11,"dy":-7},{"dx":10,"dy":-7},{"dx":10,"dy":-6},{"dx":18,"dy":-9},{"dx":10,"dy":-7},{"dx":9,"dy":-6},{"dx":10,"dy":-4},{"dx":8,"dy":-4},{"dx":17,"dy":-6},{"dx":11,"dy":-3},{"dx":10,"dy":-4},{"dx":6,"dy":-4},{"dx":2,"dy":-4},{"dx":1,"dy":-1},{"dx":2,"dy":-4},{"dx":0,"dy":0},{"dx":4,"dy":-5},{"dx":9,"dy":-9},{"dx":14,"dy":-12},{"dx":7,"dy":-8},{"dx":6,"dy":-5},{"dx":6,"dy":-5},{"dx":7,"dy":-6},{"dx":9,"dy":-11},{"dx":4,"dy":-7},{"dx":4,"dy":-5},{"dx":11,"dy":-6},{"dx":4,"dy":0},{"dx":0,"dy":0},{"dx":0,"dy":0},{"dx":0,"dy":0},{"dx":0,"dy":0},{"dx":0,"dy":0},{"dx":0,"dy":0},{"dx":0,"dy":0},{"dx":0,"dy":0},{"dx":0,"dy":0},{"dx":0,"dy":0},{"dx":0,"dy":0},{"dx":0,"dy":0},{"dx":0,"dy":0},{"dx":0,"dy":0},{"dx":0,"dy":0},{"dx":0,"dy":0},{"dx":0,"dy":0},{"dx":0,"dy":0},{"dx":30,"dy":-7},{"dx":40,"dy":-16},{"dx":70,"dy":-30},{"dx":48,"dy":-15},{"dx":42,"dy":-10},{"dx":61,"dy":-13},{"dx":33,"dy":-12},{"dx":29,"dy":-14},{"dx":28,"dy":-16},{"dx":14,"dy":-7},{"dx":14,"dy":-5},{"dx":19,"dy":-7},{"dx":22,"dy":-9}],"trial_type":"plugin-moving-dots-2","trial_index":12,"plugin_version":"0.0.1","time_elapsed":68588},{"task":"fixation","rt":1864,"stimulus":"<div style=\"font-size:60px;\">+</div>","response":" ","trial_type":"html-keyboard-response","trial_index":13,"plugin_version":"2.1.0","time_elapsed":70452},{"task":"movingdots","control_change":0,"mouse_data":[{"dx":0,"dy":0},{"dx":0,"dy":0},{"dx":0,"dy":0},{"dx":0,"dy":0},{"dx":0,"dy":0},{"dx":0,"dy":0},{"dx":0,"dy":0},{"dx":0,"dy":0},{"dx":0,"dy":0},{"dx":0,"dy":0},{"dx":0,"dy":0},{"dx":0,"dy":0},{"dx":0,"dy":0},{"dx":0,"dy":0},{"dx":0,"dy":0},{"dx":0,"dy":0},{"dx":0,"dy":0},{"dx":0,"dy":0},{"dx":0,"dy":0},{"dx":0,"dy":0},{"dx":0,"dy":0},{"dx":0,"dy":0},{"dx":0,"dy":0},{"dx":0,"dy":0},{"dx":0,"dy":0},{"dx":0,"dy":0},{"dx":0,"dy":0},{"dx":0,"dy":0},{"dx":0,"dy":0},{"dx":0,"dy":0},{"dx":3,"dy":-1},{"dx":4,"dy":-3},{"dx":5,"dy":-2},{"dx":0,"dy":-1},{"dx":1,"dy":0},{"dx":1,"dy":-1},{"dx":0,"dy":0},{"dx":1,"dy":0},{"dx":5,"dy":-3},{"dx":6,"dy":-3},{"dx":6,"dy":-3},{"dx":7,"dy":-2},{"dx":4,"dy":-2},{"dx":5,"dy":-1},{"dx":6,"dy":-3},{"dx":23,"dy":-11},{"dx":17,"dy":-11},{"dx":18,"dy":-9},{"dx":11,"dy":-6},{"dx":7,"dy":-4},{"dx":5,"dy":-4},{"dx":15,"dy":-6},{"dx":13,"dy":-4},{"dx":10,"dy":-5},{"dx":14,"dy":-8},{"dx":9,"dy":-4},{"dx":9,"dy":-4},{"dx":15,"dy":-7},{"dx":12,"dy":-5},{"dx":14,"dy":-6},{"dx":19,"dy":-6},{"dx":12,"dy":-5},{"dx":6,"dy":-1},{"dx":14,"dy":-4},{"dx":6,"dy":-1},{"dx":7,"dy":-2},{"dx":9,"dy":-1},{"dx":7,"dy":-1},{"dx":6,"dy":0},{"dx":13,"dy":1},{"dx":8,"dy":0},{"dx":12,"dy":-2},{"dx":19,"dy":-3},{"dx":10,"dy":-3},{"dx":9,"dy":-3},{"dx":7,"dy":-2},{"dx":8,"dy":-1},{"dx":7,"dy":-3},{"dx":13,"dy":-5},{"dx":7,"dy":-1},{"dx":4,"dy":-2},{"dx":5,"dy":-2},{"dx":4,"dy":-1},{"dx":6,"dy":-2},{"dx":12,"dy":-4},{"dx":6,"dy":-2},{"dx":5,"dy":-2},{"dx":7,"dy":-5},{"dx":5,"dy":-1},{"dx":6,"dy":-3},{"dx":5,"dy":-2},{"dx":5,"dy":-3},{"dx":3,"dy":-2},{"dx":6,"dy":-1},{"dx":4,"dy":-2},{"dx":5,"dy":0},{"dx":11,"dy":-2},{"dx":6,"dy":-1},{"dx":7,"dy":-1},{"dx":5,"dy":-1},{"dx":6,"dy":-1},{"dx":5,"dy":0},{"dx":14,"dy":1},{"dx":5,"dy":1},{"dx":7,"dy":0},{"dx":5,"dy":0},{"dx":0,"dy":0},{"dx":5,"dy":0},{"dx":7,"dy":1},{"dx":5,"dy":0},{"dx":4,"dy":0},{"dx":1,"dy":0},{"dx":1,"dy":0},{"dx":0,"dy":0},{"dx":0,"dy":0},{"dx":0,"dy":0},{"dx":0,"dy":0},{"dx":0,"dy":0},{"dx":0,"dy":0},{"dx":-1,"dy":5},{"dx":-3,"dy":5},{"dx":0,"dy":0},{"dx":-2,"dy":4},{"dx":-3,"dy":6},{"dx":-3,"dy":5},{"dx":-2,"dy":3},{"dx":-2,"dy":10},{"dx":-1,"dy":6},{"dx":-1,"dy":4},{"dx":0,"dy":6},{"dx":0,"dy":6},{"dx":0,"dy":5},{"dx":0,"dy":14},{"dx":0,"dy":12},{"dx":0,"dy":10},{"dx":0,"dy":18},{"dx":0,"dy":14},{"dx":-1,"dy":13},{"dx":-2,"dy":18},{"dx":-1,"dy":13},{"dx":-2,"dy":15},{"dx":-3,"dy":18},{"dx":-3,"dy":16},{"dx":-3,"dy":12},{"dx":-4,"dy":16},{"dx":-3,"dy":11},{"dx":-4,"dy":11},{"dx":-6,"dy":16},{"dx":-5,"dy":9},{"dx":-3,"dy":5},{"dx":-3,"dy":7},{"dx":-2,"dy":5},{"dx":-6,"dy":10},{"dx":-10,"dy":13},{"dx":-5,"dy":8},{"dx":-2,"dy":4},{"dx":-3,"dy":5},{"dx":0,"dy":0},{"dx":-3,"dy":4},{"dx":-3,"dy":6},{"dx":-2,"dy":4},{"dx":-1,"dy":2},{"dx":-1,"dy":5},{"dx":-2,"dy":6},{"dx":0,"dy":0},{"dx":-2,"dy":6},{"dx":-1,"dy":1},{"dx":-1,"dy":4},{"dx":-1,"dy":7},{"dx":-1,"dy":5},{"dx":0,"dy":1},{"dx":-2,"dy":5},{"dx":-2,"dy":5},{"dx":0,"dy":0},{"dx":-2,"dy":6},{"dx":0,"dy":0},{"dx":-1,"dy":1},{"dx":0,"dy":0},{"dx":0,"dy":1},{"dx":0,"dy":1},{"dx":-3,"dy":5},{"dx":-2,"dy":4},{"dx":0,"dy":0},{"dx":-1,"dy":1},{"dx":0,"dy":0},{"dx":0,"dy":0},{"dx":-4,"dy":5},{"dx":-4,"dy":6},{"dx":-3,"dy":3},{"dx":-4,"dy":4},{"dx":0,"dy":0},{"dx":0,"dy":0},{"dx":0,"dy":0},{"dx":-1,"dy":0},{"dx":-1,"dy":0},{"dx":-1,"dy":0},{"dx":-1,"dy":0},{"dx":-1,"dy":-1},{"dx":-3,"dy":-2},{"dx":-5,"dy":-2},{"dx":-1,"dy":-1},{"dx":-2,"dy":0},{"dx":-1,"dy":0},{"dx":-1,"dy":0},{"dx":-1,"dy":-2},{"dx":-1,"dy":-1},{"dx":0,"dy":-1},{"dx":-2,"dy":-2},{"dx":0,"dy":-2},{"dx":-1,"dy":-2},{"dx":-1,"dy":-6},{"dx":-2,"dy":-4},{"dx":-3,"dy":-5},{"dx":-2,"dy":-2},{"dx":-4,"dy":-5},{"dx":-1,"dy":-1},{"dx":-2,"dy":-4},{"dx":-7,"dy":-10},{"dx":-5,"dy":-5},{"dx":-11,"dy":-9},{"dx":-9,"dy":-5},{"dx":-4,"dy":-2},{"dx":-8,"dy":-3},{"dx":-15,"dy":-9},{"dx":-10,"dy":-6},{"dx":-24,"dy":-12},{"dx":-13,"dy":-6},{"dx":-12,"dy":-6},{"dx":-13,"dy":-3},{"dx":-17,"dy":-5},{"dx":-11,"dy":-3},{"dx":-21,"dy":-6},{"dx":-11,"dy":-5},{"dx":-12,"dy":-5},{"dx":-16,"dy":-6},{"dx":-5,"dy":-3},{"dx":-10,"dy":-6},{"dx":-14,"dy":-8},{"dx":-11,"dy":-4},{"dx":-9,"dy":-4},{"dx":-8,"dy":-4},{"dx":-6,"dy":-3},{"dx":-10,"dy":-5},{"dx":-15,"dy":-8},{"dx":-12,"dy":-8},{"dx":-11,"dy":-6},{"dx":-19,"dy":-7},{"dx":-5,"dy":-3},{"dx":-6,"dy":-3},{"dx":-12,"dy":-4},{"dx":-17,"dy":-7},{"dx":-11,"dy":-4},{"dx":-9,"dy":-5},{"dx":-15,"dy":-5},{"dx":-10,"dy":-3},{"dx":-10,"dy":-3},{"dx":-22,"dy":-6},{"dx":-15,"dy":-4},{"dx":-11,"dy":-5},{"dx":-22,"dy":-5},{"dx":-13,"dy":-4},{"dx":-14,"dy":-5},{"dx":-23,"dy":-7},{"dx":-13,"dy":-4},{"dx":-10,"dy":-3},{"dx":-18,"dy":-5},{"dx":-11,"dy":-2},{"dx":-12,"dy":-2},{"dx":-22,"dy":-4},{"dx":-13,"dy":-4},{"dx":-6,"dy":-3},{"dx":-12,"dy":-8},{"dx":-3,"dy":-1},{"dx":-1,"dy":-1},{"dx":-3,"dy":-3},{"dx":-1,"dy":-1},{"dx":0,"dy":-1},{"dx":-1,"dy":-2},{"dx":-1,"dy":-1},{"dx":0,"dy":0},{"dx":-1,"dy":-5},{"dx":0,"dy":0},{"dx":-1,"dy":0},{"dx":0,"dy":-1},{"dx":0,"dy":0},{"dx":0,"dy":-1},{"dx":0,"dy":0},{"dx":0,"dy":0},{"dx":0,"dy":0},{"dx":0,"dy":0},{"dx":0,"dy":0},{"dx":0,"dy":0},{"dx":0,"dy":0},{"dx":0,"dy":0},{"dx":0,"dy":0},{"dx":0,"dy":0},{"dx":0,"dy":0},{"dx":0,"dy":0},{"dx":0,"dy":0},{"dx":0,"dy":0},{"dx":0,"dy":0},{"dx":0,"dy":0},{"dx":0,"dy":0},{"dx":0,"dy":0},{"dx":0,"dy":0},{"dx":0,"dy":0},{"dx":0,"dy":0},{"dx":0,"dy":0},{"dx":0,"dy":0},{"dx":0,"dy":0},{"dx":0,"dy":0},{"dx":-3,"dy":-4},{"dx":-8,"dy":-12},{"dx":-11,"dy":-14},{"dx":-8,"dy":-8},{"dx":-11,"dy":-9},{"dx":-14,"dy":-12},{"dx":-5,"dy":-4},{"dx":-12,"dy":-8},{"dx":-21,"dy":-6},{"dx":-9,"dy":-2},{"dx":-10,"dy":-2},{"dx":-14,"dy":-3},{"dx":-6,"dy":-2},{"dx":-14,"dy":-7},{"dx":-12,"dy":-9},{"dx":-10,"dy":-5},{"dx":-7,"dy":-2},{"dx":-4,"dy":-2},{"dx":-6,"dy":-1},{"dx":-5,"dy":-2},{"dx":-14,"dy":-4},{"dx":-6,"dy":-2},{"dx":-7,"dy":-1},{"dx":-4,"dy":-2},{"dx":0,"dy":0},{"dx":-2,"dy":0},{"dx":-19,"dy":-6},{"dx":-14,"dy":-3},{"dx":-10,"dy":-3},{"dx":-8,"dy":-1},{"dx":-5,"dy":-1},{"dx":-1,"dy":0},{"dx":-1,"dy":0},{"dx":-1,"dy":0},{"dx":-1,"dy":0},{"dx":-1,"dy":0},{"dx":0,"dy":0},{"dx":-1,"dy":1},{"dx":0,"dy":0},{"dx":-1,"dy":1},{"dx":-1,"dy":5},{"dx":0,"dy":8},{"dx":0,"dy":14},{"dx":-1,"dy":13},{"dx":-5,"dy":20},{"dx":-7,"dy":25},{"dx":-7,"dy":23},{"dx":-9,"dy":41},{"dx":-6,"dy":21},{"dx":-4,"dy":18},{"dx":-3,"dy":22},{"dx":-1,"dy":12},{"dx":0,"dy":8},{"dx":0,"dy":9},{"dx":1,"dy":9},{"dx":1,"dy":8},{"dx":1,"dy":10},{"dx":1,"dy":8},{"dx":1,"dy":11},{"dx":1,"dy":12},{"dx":1,"dy":17},{"dx":0,"dy":11},{"dx":0,"dy":10},{"dx":0,"dy":8},{"dx":2,"dy":15},{"dx":0,"dy":14},{"dx":0,"dy":14},{"dx":0,"dy":9},{"dx":-1,"dy":6},{"dx":-1,"dy":6},{"dx":0,"dy":1},{"dx":0,"dy":0},{"dx":-4,"dy":16},{"dx":-3,"dy":7},{"dx":-3,"dy":7},{"dx":-1,"dy":5},{"dx":-1,"dy":6},{"dx":0,"dy":0},{"dx":-1,"dy":1},{"dx":-1,"dy":6},{"dx":-3,"dy":9},{"dx":-3,"dy":15},{"dx":0,"dy":7},{"dx":0,"dy":1},{"dx":1,"dy":6},{"dx":0,"dy":1},{"dx":1,"dy":0},{"dx":9,"dy":2},{"dx":6,"dy":0},{"dx":8,"dy":0},{"dx":14,"dy":0},{"dx":8,"dy":0},{"dx":14,"dy":-1},{"dx":23,"dy":0},{"dx":15,"dy":1},{"dx":13,"dy":1},{"dx":7,"dy":0},{"dx":33,"dy":0},{"dx":20,"dy":-2},{"dx":23,"dy":-7},{"dx":20,"dy":-8},{"dx":13,"dy":-3},{"dx":7,"dy":-1},{"dx":7,"dy":-1},{"dx":7,"dy":-1},{"dx":12,"dy":-4},{"dx":7,"dy":-2},{"dx":14,"dy":-5},{"dx":21,"dy":-11},{"dx":10,"dy":-4},{"dx":8,"dy":-3},{"dx":13,"dy":-4},{"dx":10,"dy":-4},{"dx":11,"dy":-5},{"dx":18,"dy":-9},{"dx":13,"dy":-7},{"dx":9,"dy":-6},{"dx":15,"dy":-8},{"dx":10,"dy":-5},{"dx":10,"dy":-5},{"dx":14,"dy":-7},{"dx":10,"dy":-4},{"dx":5,"dy":-2},{"dx":10,"dy":-7},{"dx":3,"dy":-4},{"dx":4,"dy":-2},{"dx":5,"dy":-4},{"dx":6,"dy":-3},{"dx":7,"dy":-5},{"dx":8,"dy":-6},{"dx":6,"dy":-3},{"dx":5,"dy":-3},{"dx":9,"dy":-4},{"dx":9,"dy":-5},{"dx":4,"dy":-4},{"dx":10,"dy":-8},{"dx":4,"dy":-3},{"dx":2,"dy":-4},{"dx":4,"dy":-6},{"dx":4,"dy":-4},{"dx":4,"dy":-5},{"dx":3,"dy":-5}],"trial_type":"plugin-moving-dots-2","trial_index":14,"plugin_version":"0.0.1","time_elapsed":77969},{"task":"fixation","rt":2194,"stimulus":"<div style=\"font-size:60px;\">+</div>","response":" ","trial_type":"html-keyboard-response","trial_index":15,"plugin_version":"2.1.0","time_elapsed":80165},{"task":"movingdots","control_change":0,"mouse_data":[{"dx":0,"dy":0},{"dx":0,"dy":0},{"dx":0,"dy":0},{"dx":0,"dy":0},{"dx":0,"dy":0},{"dx":0,"dy":0},{"dx":0,"dy":0},{"dx":0,"dy":0},{"dx":0,"dy":0},{"dx":0,"dy":0},{"dx":0,"dy":0},{"dx":0,"dy":0},{"dx":0,"dy":0},{"dx":0,"dy":0},{"dx":0,"dy":0},{"dx":0,"dy":0},{"dx":0,"dy":0},{"dx":0,"dy":0},{"dx":0,"dy":0},{"dx":0,"dy":0},{"dx":0,"dy":0},{"dx":0,"dy":0},{"dx":0,"dy":0},{"dx":0,"dy":0},{"dx":0,"dy":0},{"dx":0,"dy":0},{"dx":0,"dy":0},{"dx":0,"dy":0},{"dx":0,"dy":0},{"dx":0,"dy":0},{"dx":0,"dy":0},{"dx":0,"dy":0},{"dx":0,"dy":0},{"dx":0,"dy":0},{"dx":0,"dy":0},{"dx":0,"dy":0},{"dx":0,"dy":0},{"dx":0,"dy":0},{"dx":0,"dy":0},{"dx":0,"dy":0},{"dx":0,"dy":0},{"dx":0,"dy":0},{"dx":0,"dy":0},{"dx":0,"dy":0},{"dx":0,"dy":0},{"dx":0,"dy":0},{"dx":0,"dy":0},{"dx":0,"dy":0},{"dx":0,"dy":0},{"dx":-2,"dy":0},{"dx":-5,"dy":3},{"dx":-2,"dy":2},{"dx":-5,"dy":4},{"dx":-4,"dy":3},{"dx":-3,"dy":4},{"dx":-4,"dy":3},{"dx":-7,"dy":8},{"dx":-3,"dy":3},{"dx":-4,"dy":4},{"dx":-1,"dy":1},{"dx":-2,"dy":4},{"dx":-4,"dy":2},{"dx":-4,"dy":4},{"dx":-5,"dy":4},{"dx":-5,"dy":6},{"dx":-11,"dy":10},{"dx":-5,"dy":4},{"dx":-4,"dy":3},{"dx":-11,"dy":8},{"dx":-8,"dy":6},{"dx":-8,"dy":7},{"dx":-9,"dy":7},{"dx":-7,"dy":6},{"dx":-6,"dy":4},{"dx":-13,"dy":6},{"dx":-6,"dy":4},{"dx":-10,"dy":4},{"dx":-14,"dy":8},{"dx":-6,"dy":2},{"dx":-5,"dy":3},{"dx":-5,"dy":3},{"dx":-4,"dy":2},{"dx":-6,"dy":1},{"dx":-14,"dy":5},{"dx":-11,"dy":5},{"dx":-11,"dy":5},{"dx":-10,"dy":3},{"dx":-8,"dy":2},{"dx":-7,"dy":2},{"dx":-16,"dy":1},{"dx":-7,"dy":1},{"dx":-7,"dy":0},{"dx":-8,"dy":2},{"dx":-8,"dy":0},{"dx":-7,"dy":1},{"dx":-14,"dy":1},{"dx":-6,"dy":1},{"dx":-7,"dy":1},{"dx":-7,"dy":0},{"dx":-13,"dy":1},{"dx":-9,"dy":0},{"dx":-7,"dy":0},{"dx":-8,"dy":0},{"dx":-5,"dy":0},{"dx":-14,"dy":0},{"dx":-8,"dy":-1},{"dx":-7,"dy":0},{"dx":-8,"dy":-1},{"dx":-6,"dy":-1},{"dx":-7,"dy":0},{"dx":-13,"dy":-1},{"dx":-5,"dy":-1},{"dx":-5,"dy":-1},{"dx":-6,"dy":-1},{"dx":-5,"dy":-1},{"dx":-5,"dy":-1},{"dx":-8,"dy":-3},{"dx":-5,"dy":-2},{"dx":-4,"dy":-4},{"dx":-7,"dy":-4},{"dx":-5,"dy":-5},{"dx":-5,"dy":-4},{"dx":-8,"dy":-7},{"dx":-4,"dy":-5},{"dx":-4,"dy":-5},{"dx":-6,"dy":-10},{"dx":-6,"dy":-10},{"dx":-6,"dy":-10},{"dx":-8,"dy":-16},{"dx":-5,"dy":-13},{"dx":-4,"dy":-12},{"dx":-5,"dy":-19},{"dx":-4,"dy":-13},{"dx":-4,"dy":-14},{"dx":-6,"dy":-28},{"dx":-3,"dy":-14},{"dx":-2,"dy":-11},{"dx":-1,"dy":-8},{"dx":-1,"dy":-9},{"dx":0,"dy":-8},{"dx":0,"dy":-6},{"dx":0,"dy":-17},{"dx":1,"dy":-11},{"dx":3,"dy":-15},{"dx":1,"dy":-4},{"dx":1,"dy":-5},{"dx":3,"dy":-6},{"dx":4,"dy":-6},{"dx":8,"dy":-12},{"dx":6,"dy":-10},{"dx":6,"dy":-7},{"dx":4,"dy":-5},{"dx":10,"dy":-9},{"dx":10,"dy":-7},{"dx":12,"dy":-9},{"dx":19,"dy":-16},{"dx":13,"dy":-7},{"dx":14,"dy":-7},{"dx":18,"dy":-9},{"dx":17,"dy":-4},{"dx":17,"dy":-4},{"dx":34,"dy":-5},{"dx":21,"dy":-3},{"dx":18,"dy":-1},{"dx":17,"dy":0},{"dx":24,"dy":0},{"dx":20,"dy":1},{"dx":27,"dy":6},{"dx":22,"dy":5},{"dx":16,"dy":7},{"dx":17,"dy":10},{"dx":16,"dy":10},{"dx":21,"dy":17},{"dx":17,"dy":14},{"dx":32,"dy":29},{"dx":19,"dy":21},{"dx":20,"dy":22},{"dx":13,"dy":21},{"dx":13,"dy":19},{"dx":13,"dy":26},{"dx":8,"dy":18},{"dx":5,"dy":14},{"dx":9,"dy":24},{"dx":6,"dy":15},{"dx":6,"dy":12},{"dx":9,"dy":18},{"dx":5,"dy":11},{"dx":5,"dy":10},{"dx":5,"dy":10},{"dx":4,"dy":6},{"dx":7,"dy":13},{"dx":10,"dy":13},{"dx":4,"dy":5},{"dx":6,"dy":6},{"dx":4,"dy":5},{"dx":10,"dy":9},{"dx":5,"dy":4},{"dx":12,"dy":9},{"dx":5,"dy":3},{"dx":4,"dy":2},{"dx":5,"dy":1},{"dx":11,"dy":2},{"dx":11,"dy":0},{"dx":9,"dy":0},{"dx":11,"dy":-1},{"dx":1,"dy":0},{"dx":5,"dy":0},{"dx":13,"dy":-3},{"dx":11,"dy":-4},{"dx":13,"dy":-5},{"dx":9,"dy":-6},{"dx":4,"dy":-3},{"dx":1,"dy":-1},{"dx":2,"dy":-1},{"dx":0,"dy":-1},{"dx":0,"dy":0},{"dx":0,"dy":0},{"dx":0,"dy":0},{"dx":0,"dy":0},{"dx":0,"dy":0},{"dx":0,"dy":0},{"dx":0,"dy":0},{"dx":0,"dy":0},{"dx":0,"dy":0},{"dx":0,"dy":0},{"dx":0,"dy":0},{"dx":0,"dy":0},{"dx":0,"dy":0},{"dx":0,"dy":0},{"dx":0,"dy":0},{"dx":0,"dy":0},{"dx":0,"dy":0},{"dx":0,"dy":0},{"dx":0,"dy":0},{"dx":5,"dy":-8},{"dx":2,"dy":-5},{"dx":1,"dy":-6},{"dx":2,"dy":-10},{"dx":3,"dy":-12},{"dx":3,"dy":-13},{"dx":9,"dy":-28},{"dx":5,"dy":-17},{"dx":3,"dy":-12},{"dx":2,"dy":-9},{"dx":2,"dy":-7},{"dx":1,"dy":-13},{"dx":0,"dy":-10},{"dx":0,"dy":-7},{"dx":0,"dy":-7},{"dx":-3,"dy":-11},{"dx":-2,"dy":-11},{"dx":-3,"dy":-11},{"dx":-6,"dy":-15},{"dx":-5,"dy":-10},{"dx":-4,"dy":-8},{"dx":-4,"dy":-8},{"dx":-6,"dy":-7},{"dx":-6,"dy":-5},{"dx":-8,"dy":-7},{"dx":-3,"dy":-3},{"dx":-4,"dy":-3},{"dx":-5,"dy":-3},{"dx":-13,"dy":-6},{"dx":-11,"dy":-4},{"dx":-12,"dy":-7},{"dx":-6,"dy":-3},{"dx":-7,"dy":-3},{"dx":-16,"dy":-2},{"dx":-12,"dy":-4},{"dx":-11,"dy":-2},{"dx":-17,"dy":-1},{"dx":-7,"dy":0},{"dx":-6,"dy":0},{"dx":-5,"dy":1},{"dx":-7,"dy":1},{"dx":-13,"dy":3},{"dx":-13,"dy":6},{"dx":-5,"dy":3},{"dx":-6,"dy":4},{"dx":-10,"dy":7},{"dx":-4,"dy":5},{"dx":-5,"dy":7},{"dx":-7,"dy":12},{"dx":-3,"dy":11},{"dx":-3,"dy":5},{"dx":-5,"dy":12},{"dx":-1,"dy":0},{"dx":-2,"dy":5},{"dx":-2,"dy":7},{"dx":0,"dy":0},{"dx":-2,"dy":7},{"dx":-2,"dy":11},{"dx":0,"dy":0},{"dx":-1,"dy":6},{"dx":0,"dy":2},{"dx":0,"dy":3},{"dx":0,"dy":7},{"dx":0,"dy":6},{"dx":0,"dy":6},{"dx":1,"dy":5},{"dx":1,"dy":6},{"dx":1,"dy":6},{"dx":1,"dy":5},{"dx":1,"dy":6},{"dx":1,"dy":6},{"dx":1,"dy":5},{"dx":1,"dy":6},{"dx":0,"dy":4},{"dx":1,"dy":6},{"dx":1,"dy":7},{"dx":3,"dy":16},{"dx":1,"dy":11},{"dx":2,"dy":10},{"dx":1,"dy":7},{"dx":1,"dy":6},{"dx":5,"dy":12},{"dx":3,"dy":3},{"dx":3,"dy":4},{"dx":4,"dy":2},{"dx":3,"dy":2},{"dx":4,"dy":3},{"dx":5,"dy":4},{"dx":15,"dy":7},{"dx":6,"dy":4},{"dx":7,"dy":2},{"dx":7,"dy":3},{"dx":12,"dy":5},{"dx":8,"dy":3},{"dx":11,"dy":4},{"dx":7,"dy":2},{"dx":4,"dy":1},{"dx":6,"dy":2},{"dx":6,"dy":1},{"dx":6,"dy":1},{"dx":7,"dy":1},{"dx":5,"dy":0},{"dx":5,"dy":0},{"dx":0,"dy":0},{"dx":7,"dy":0},{"dx":5,"dy":-2},{"dx":8,"dy":-2},{"dx":8,"dy":-3},{"dx":5,"dy":-2},{"dx":7,"dy":-5},{"dx":4,"dy":-6},{"dx":3,"dy":-8},{"dx":7,"dy":-15},{"dx":4,"dy":-6},{"dx":3,"dy":-6},{"dx":3,"dy":-5},{"dx":4,"dy":-4},{"dx":8,"dy":-12},{"dx":13,"dy":-16},{"dx":6,"dy":-9},{"dx":4,"dy":-7},{"dx":3,"dy":-7},{"dx":3,"dy":-6},{"dx":5,"dy":-14},{"dx":5,"dy":-11},{"dx":4,"dy":-8},{"dx":2,"dy":-6},{"dx":12,"dy":-16},{"dx":27,"dy":-18},{"dx":51,"dy":-20},{"dx":17,"dy":-6},{"dx":10,"dy":-5},{"dx":6,"dy":-4},{"dx":4,"dy":-2},{"dx":4,"dy":0},{"dx":3,"dy":1},{"dx":0,"dy":0},{"dx":0,"dy":0},{"dx":0,"dy":0},{"dx":0,"dy":0},{"dx":0,"dy":0},{"dx":0,"dy":0},{"dx":0,"dy":0},{"dx":0,"dy":0},{"dx":0,"dy":0},{"dx":0,"dy":0},{"dx":0,"dy":0},{"dx":0,"dy":0},{"dx":0,"dy":0},{"dx":0,"dy":0},{"dx":0,"dy":0},{"dx":0,"dy":0},{"dx":0,"dy":0},{"dx":0,"dy":0},{"dx":0,"dy":0},{"dx":0,"dy":0},{"dx":0,"dy":0},{"dx":0,"dy":0},{"dx":0,"dy":0},{"dx":0,"dy":0},{"dx":0,"dy":0},{"dx":0,"dy":0},{"dx":0,"dy":0},{"dx":8,"dy":-1},{"dx":18,"dy":-2},{"dx":33,"dy":-5},{"dx":44,"dy":-7},{"dx":31,"dy":-4},{"dx":24,"dy":-3},{"dx":27,"dy":-1},{"dx":15,"dy":2},{"dx":18,"dy":5},{"dx":21,"dy":8},{"dx":9,"dy":5},{"dx":6,"dy":4},{"dx":4,"dy":5},{"dx":2,"dy":5},{"dx":2,"dy":5},{"dx":2,"dy":18},{"dx":1,"dy":14},{"dx":-1,"dy":17},{"dx":-8,"dy":22},{"dx":-6,"dy":12},{"dx":-2,"dy":7},{"dx":-5,"dy":12},{"dx":-1,"dy":5},{"dx":-3,"dy":7},{"dx":-7,"dy":16},{"dx":-4,"dy":6},{"dx":-5,"dy":7},{"dx":-7,"dy":6},{"dx":-6,"dy":4},{"dx":-5,"dy":4},{"dx":-7,"dy":4},{"dx":-5,"dy":4},{"dx":-4,"dy":2},{"dx":-8,"dy":2},{"dx":-7,"dy":0},{"dx":-7,"dy":-2},{"dx":-12,"dy":-3},{"dx":-11,"dy":-3},{"dx":-13,"dy":-3},{"dx":-22,"dy":-2},{"dx":-21,"dy":-4},{"dx":-21,"dy":-4},{"dx":-31,"dy":-3},{"dx":-19,"dy":0},{"dx":-20,"dy":-2},{"dx":-35,"dy":-1},{"dx":-23,"dy":0},{"dx":-17,"dy":0},{"dx":-21,"dy":0},{"dx":-13,"dy":0},{"dx":-13,"dy":-2},{"dx":-25,"dy":-16},{"dx":-22,"dy":-16},{"dx":-17,"dy":-12},{"dx":-20,"dy":-14}],"trial_type":"plugin-moving-dots-2","trial_index":16,"plugin_version":"0.0.1","time_elapsed":87669},{"task":"fixation","rt":1424,"stimulus":"<div style=\"font-size:60px;\">+</div>","response":" ","trial_type":"html-keyboard-response","trial_index":17,"plugin_version":"2.1.0","time_elapsed":89093},{"task":"movingdots","control_change":0,"mouse_data":[{"dx":0,"dy":0},{"dx":0,"dy":0},{"dx":0,"dy":0},{"dx":0,"dy":0},{"dx":0,"dy":0},{"dx":0,"dy":0},{"dx":0,"dy":0},{"dx":0,"dy":0},{"dx":0,"dy":0},{"dx":0,"dy":0},{"dx":0,"dy":0},{"dx":0,"dy":0},{"dx":0,"dy":0},{"dx":0,"dy":0},{"dx":0,"dy":0},{"dx":0,"dy":0},{"dx":0,"dy":0},{"dx":0,"dy":0},{"dx":0,"dy":0},{"dx":0,"dy":0},{"dx":0,"dy":0},{"dx":0,"dy":0},{"dx":0,"dy":0},{"dx":0,"dy":0},{"dx":0,"dy":0},{"dx":0,"dy":0},{"dx":0,"dy":0},{"dx":0,"dy":0},{"dx":0,"dy":0},{"dx":0,"dy":0},{"dx":0,"dy":0},{"dx":0,"dy":0},{"dx":0,"dy":0},{"dx":0,"dy":0},{"dx":0,"dy":0},{"dx":0,"dy":0},{"dx":-1,"dy":4},{"dx":-4,"dy":9},{"dx":-1,"dy":1},{"dx":-2,"dy":4},{"dx":-4,"dy":4},{"dx":0,"dy":1},{"dx":-3,"dy":5},{"dx":-2,"dy":5},{"dx":0,"dy":0},{"dx":-3,"dy":4},{"dx":0,"dy":1},{"dx":-2,"dy":5},{"dx":-2,"dy":5},{"dx":-3,"dy":6},{"dx":-2,"dy":7},{"dx":-4,"dy":5},{"dx":-3,"dy":5},{"dx":-3,"dy":5},{"dx":-3,"dy":5},{"dx":-9,"dy":16},{"dx":-7,"dy":8},{"dx":-3,"dy":5},{"dx":-8,"dy":11},{"dx":-3,"dy":5},{"dx":-4,"dy":7},{"dx":-3,"dy":7},{"dx":-3,"dy":7},{"dx":-3,"dy":5},{"dx":-2,"dy":4},{"dx":-2,"dy":4},{"dx":0,"dy":0},{"dx":-3,"dy":5},{"dx":-2,"dy":5},{"dx":-1,"dy":4},{"dx":-1,"dy":2},{"dx":0,"dy":1},{"dx":0,"dy":1},{"dx":0,"dy":0},{"dx":0,"dy":0},{"dx":0,"dy":1},{"dx":0,"dy":0},{"dx":0,"dy":0},{"dx":0,"dy":0},{"dx":0,"dy":1},{"dx":1,"dy":4},{"dx":0,"dy":0},{"dx":7,"dy":7},{"dx":4,"dy":3},{"dx":5,"dy":2},{"dx":6,"dy":2},{"dx":6,"dy":1},{"dx":7,"dy":0},{"dx":10,"dy":0},{"dx":8,"dy":-1},{"dx":13,"dy":-2},{"dx":12,"dy":-4},{"dx":6,"dy":-2},{"dx":5,"dy":-1},{"dx":16,"dy":-4},{"dx":10,"dy":-6},{"dx":15,"dy":-18},{"dx":27,"dy":-27},{"dx":5,"dy":-4},{"dx":13,"dy":-5},{"dx":12,"dy":-10},{"dx":13,"dy":-15},{"dx":15,"dy":-20},{"dx":9,"dy":-11},{"dx":4,"dy":-5},{"dx":3,"dy":-6},{"dx":2,"dy":-6},{"dx":2,"dy":-5},{"dx":7,"dy":-14},{"dx":5,"dy":-8},{"dx":3,"dy":-10},{"dx":4,"dy":-14},{"dx":3,"dy":-21},{"dx":4,"dy":-22},{"dx":2,"dy":-29},{"dx":0,"dy":-42},{"dx":-2,"dy":-18},{"dx":-4,"dy":-15},{"dx":-7,"dy":-17},{"dx":-8,"dy":-13},{"dx":-9,"dy":-13},{"dx":-9,"dy":-17},{"dx":-6,"dy":-6},{"dx":-3,"dy":-5},{"dx":-7,"dy":-4},{"dx":-16,"dy":-8},{"dx":-10,"dy":-5},{"dx":-17,"dy":-4},{"dx":-7,"dy":-2},{"dx":-5,"dy":-1},{"dx":-7,"dy":-2},{"dx":-12,"dy":-3},{"dx":-10,"dy":-2},{"dx":-8,"dy":-2},{"dx":-5,"dy":-1},{"dx":-4,"dy":-1},{"dx":-6,"dy":0},{"dx":-17,"dy":0},{"dx":-9,"dy":0},{"dx":-6,"dy":0},{"dx":-7,"dy":-1},{"dx":-5,"dy":0},{"dx":-4,"dy":0},{"dx":-4,"dy":4},{"dx":-4,"dy":5},{"dx":-3,"dy":6},{"dx":-6,"dy":18},{"dx":-2,"dy":12},{"dx":-1,"dy":15},{"dx":0,"dy":29},{"dx":-2,"dy":16},{"dx":-7,"dy":24},{"dx":-3,"dy":13},{"dx":-4,"dy":8},{"dx":-4,"dy":6},{"dx":-7,"dy":14},{"dx":-6,"dy":12},{"dx":-5,"dy":11},{"dx":-8,"dy":14},{"dx":-3,"dy":5},{"dx":-7,"dy":13},{"dx":-9,"dy":14},{"dx":-8,"dy":10},{"dx":-7,"dy":10},{"dx":-12,"dy":17},{"dx":-5,"dy":5},{"dx":-5,"dy":6},{"dx":-11,"dy":7},{"dx":-9,"dy":5},{"dx":-7,"dy":4},{"dx":-12,"dy":9},{"dx":-6,"dy":6},{"dx":-5,"dy":3},{"dx":-6,"dy":4},{"dx":-6,"dy":3},{"dx":-7,"dy":3},{"dx":-14,"dy":3},{"dx":-7,"dy":1},{"dx":-7,"dy":0},{"dx":-7,"dy":0},{"dx":-12,"dy":-1},{"dx":-8,"dy":-1},{"dx":-13,"dy":-1},{"dx":-11,"dy":-1},{"dx":-13,"dy":-1},{"dx":-17,"dy":-4},{"dx":-7,"dy":-3},{"dx":-5,"dy":-2},{"dx":-5,"dy":-3},{"dx":-1,"dy":0},{"dx":0,"dy":0},{"dx":-2,"dy":-1},{"dx":0,"dy":-1},{"dx":0,"dy":0},{"dx":0,"dy":0},{"dx":0,"dy":0},{"dx":0,"dy":0},{"dx":0,"dy":0},{"dx":0,"dy":0},{"dx":0,"dy":0},{"dx":0,"dy":0},{"dx":0,"dy":0},{"dx":0,"dy":0},{"dx":0,"dy":0},{"dx":0,"dy":0},{"dx":0,"dy":0},{"dx":0,"dy":0},{"dx":0,"dy":0},{"dx":0,"dy":0},{"dx":0,"dy":0},{"dx":0,"dy":0},{"dx":0,"dy":0},{"dx":0,"dy":0},{"dx":0,"dy":0},{"dx":0,"dy":0},{"dx":-4,"dy":0},{"dx":-9,"dy":-1},{"dx":-9,"dy":-2},{"dx":-22,"dy":-5},{"dx":-15,"dy":-4},{"dx":-17,"dy":-6},{"dx":-29,"dy":-10},{"dx":-14,"dy":-6},{"dx":-12,"dy":-6},{"dx":-21,"dy":-12},{"dx":-13,"dy":-7},{"dx":-13,"dy":-8},{"dx":-21,"dy":-11},{"dx":-12,"dy":-6},{"dx":-10,"dy":-7},{"dx":-19,"dy":-11},{"dx":-15,"dy":-8},{"dx":-14,"dy":-6},{"dx":-20,"dy":-11},{"dx":-9,"dy":-7},{"dx":-9,"dy":-7},{"dx":-11,"dy":-15},{"dx":-7,"dy":-10},{"dx":-4,"dy":-4},{"dx":-7,"dy":-14},{"dx":-1,"dy":-4},{"dx":-1,"dy":-5},{"dx":0,"dy":-7},{"dx":0,"dy":-6},{"dx":0,"dy":-4},{"dx":7,"dy":-11},{"dx":4,"dy":-5},{"dx":7,"dy":-5},{"dx":12,"dy":-9},{"dx":9,"dy":-8},{"dx":10,"dy":-6},{"dx":28,"dy":-11},{"dx":28,"dy":-7},{"dx":34,"dy":-5},{"dx":40,"dy":-5},{"dx":19,"dy":-2},{"dx":12,"dy":-1},{"dx":20,"dy":0},{"dx":17,"dy":2},{"dx":16,"dy":4},{"dx":30,"dy":6},{"dx":13,"dy":4},{"dx":13,"dy":3},{"dx":23,"dy":6},{"dx":14,"dy":6},{"dx":14,"dy":8},{"dx":28,"dy":14},{"dx":14,"dy":7},{"dx":21,"dy":8},{"dx":40,"dy":14},{"dx":33,"dy":12},{"dx":33,"dy":16},{"dx":58,"dy":26},{"dx":50,"dy":23},{"dx":49,"dy":26},{"dx":71,"dy":35},{"dx":43,"dy":21},{"dx":31,"dy":16},{"dx":30,"dy":10},{"dx":9,"dy":4},{"dx":12,"dy":5},{"dx":37,"dy":15},{"dx":41,"dy":14},{"dx":33,"dy":10},{"dx":30,"dy":6},{"dx":5,"dy":0},{"dx":6,"dy":1},{"dx":8,"dy":0},{"dx":4,"dy":0},{"dx":1,"dy":-1},{"dx":5,"dy":-3},{"dx":2,"dy":-3},{"dx":1,"dy":-2},{"dx":2,"dy":-5},{"dx":1,"dy":0},{"dx":3,"dy":-5},{"dx":2,"dy":-6},{"dx":0,"dy":-5},{"dx":2,"dy":-7},{"dx":0,"dy":0},{"dx":0,"dy":0},{"dx":0,"dy":0},{"dx":0,"dy":0},{"dx":0,"dy":0},{"dx":0,"dy":-1},{"dx":0,"dy":-1},{"dx":0,"dy":0},{"dx":0,"dy":0},{"dx":0,"dy":0},{"dx":0,"dy":0},{"dx":0,"dy":0},{"dx":0,"dy":0},{"dx":0,"dy":0},{"dx":0,"dy":0},{"dx":0,"dy":0},{"dx":0,"dy":0},{"dx":0,"dy":0},{"dx":0,"dy":0},{"dx":0,"dy":0},{"dx":0,"dy":0},{"dx":0,"dy":0},{"dx":0,"dy":0},{"dx":0,"dy":0},{"dx":0,"dy":0},{"dx":0,"dy":0},{"dx":0,"dy":0},{"dx":0,"dy":0},{"dx":0,"dy":0},{"dx":0,"dy":0},{"dx":0,"dy":0},{"dx":13,"dy":-2},{"dx":16,"dy":-3},{"dx":16,"dy":-2},{"dx":19,"dy":-4},{"dx":16,"dy":-1},{"dx":19,"dy":-5},{"dx":43,"dy":-11},{"dx":18,"dy":-6},{"dx":13,"dy":-5},{"dx":10,"dy":-3},{"dx":0,"dy":0},{"dx":1,"dy":-1},{"dx":31,"dy":-20},{"dx":17,"dy":-15},{"dx":19,"dy":-8},{"dx":0,"dy":0},{"dx":0,"dy":0},{"dx":0,"dy":0},{"dx":0,"dy":0},{"dx":0,"dy":0},{"dx":0,"dy":0},{"dx":0,"dy":0},{"dx":-2,"dy":-5},{"dx":-4,"dy":-4},{"dx":-4,"dy":-3},{"dx":-5,"dy":-5},{"dx":-4,"dy":-3},{"dx":-7,"dy":-5},{"dx":-2,"dy":-1},{"dx":-3,"dy":-2},{"dx":-9,"dy":-7},{"dx":-3,"dy":-3},{"dx":-5,"dy":-3},{"dx":-4,"dy":-2},{"dx":-3,"dy":-2},{"dx":-5,"dy":-3},{"dx":-26,"dy":-13},{"dx":-30,"dy":-10},{"dx":-34,"dy":-8},{"dx":-36,"dy":-7},{"dx":-19,"dy":-3},{"dx":-13,"dy":-3},{"dx":-16,"dy":-3},{"dx":-12,"dy":-2},{"dx":-13,"dy":-1},{"dx":-17,"dy":-1},{"dx":-17,"dy":0},{"dx":-14,"dy":0},{"dx":-16,"dy":2},{"dx":-11,"dy":2},{"dx":-6,"dy":1},{"dx":-13,"dy":5},{"dx":-5,"dy":4},{"dx":-5,"dy":5},{"dx":-9,"dy":10},{"dx":-8,"dy":8},{"dx":-7,"dy":8},{"dx":-5,"dy":7},{"dx":-6,"dy":14},{"dx":-3,"dy":9},{"dx":-2,"dy":11},{"dx":0,"dy":13},{"dx":1,"dy":13},{"dx":4,"dy":18},{"dx":2,"dy":12},{"dx":1,"dy":5},{"dx":3,"dy":19},{"dx":2,"dy":7},{"dx":3,"dy":10},{"dx":2,"dy":12},{"dx":2,"dy":7},{"dx":0,"dy":6},{"dx":0,"dy":8},{"dx":0,"dy":6},{"dx":-5,"dy":19},{"dx":-8,"dy":23},{"dx":-8,"dy":15},{"dx":-6,"dy":13},{"dx":-7,"dy":11},{"dx":-3,"dy":3},{"dx":-4,"dy":4},{"dx":-18,"dy":22},{"dx":-19,"dy":21},{"dx":-12,"dy":11},{"dx":-18,"dy":17},{"dx":-10,"dy":9},{"dx":-9,"dy":6},{"dx":-8,"dy":3},{"dx":-6,"dy":1},{"dx":-7,"dy":-1},{"dx":-17,"dy":-8},{"dx":-9,"dy":-6},{"dx":-9,"dy":-6},{"dx":-9,"dy":-5},{"dx":-12,"dy":-7},{"dx":-10,"dy":-5},{"dx":-17,"dy":-10},{"dx":-17,"dy":-9},{"dx":-18,"dy":-8},{"dx":-19,"dy":-10},{"dx":-12,"dy":-7},{"dx":-12,"dy":-8},{"dx":-14,"dy":-14},{"dx":-11,"dy":-14},{"dx":-11,"dy":-17},{"dx":-19,"dy":-41},{"dx":-7,"dy":-24},{"dx":-4,"dy":-17},{"dx":-1,"dy":-12},{"dx":-1,"dy":-12},{"dx":1,"dy":-8},{"dx":3,"dy":-14},{"dx":10,"dy":-17},{"dx":8,"dy":-16},{"dx":10,"dy":-14},{"dx":18,"dy":-20},{"dx":11,"dy":-11},{"dx":13,"dy":-12},{"dx":23,"dy":-14},{"dx":16,"dy":-8},{"dx":26,"dy":-8},{"dx":45,"dy":-11},{"dx":30,"dy":-6}],"trial_type":"plugin-moving-dots-2","trial_index":18,"plugin_version":"0.0.1","time_elapsed":96602},{"task":"fixation","rt":2665,"stimulus":"<div style=\"font-size:60px;\">+</div>","response":" ","trial_type":"html-keyboard-response","trial_index":19,"plugin_version":"2.1.0","time_elapsed":99269},{"task":"movingdots","control_change":0,"mouse_data":[{"dx":0,"dy":0},{"dx":0,"dy":0},{"dx":0,"dy":0},{"dx":0,"dy":0},{"dx":0,"dy":0},{"dx":0,"dy":0},{"dx":0,"dy":0},{"dx":0,"dy":0},{"dx":0,"dy":0},{"dx":0,"dy":0},{"dx":0,"dy":0},{"dx":0,"dy":0},{"dx":0,"dy":0},{"dx":0,"dy":0},{"dx":0,"dy":0},{"dx":0,"dy":0},{"dx":0,"dy":0},{"dx":0,"dy":0},{"dx":0,"dy":0},{"dx":0,"dy":0},{"dx":0,"dy":0},{"dx":0,"dy":0},{"dx":0,"dy":0},{"dx":0,"dy":0},{"dx":0,"dy":0},{"dx":0,"dy":0},{"dx":0,"dy":0},{"dx":0,"dy":0},{"dx":0,"dy":0},{"dx":0,"dy":0},{"dx":0,"dy":0},{"dx":0,"dy":0},{"dx":0,"dy":0},{"dx":0,"dy":0},{"dx":0,"dy":0},{"dx":0,"dy":4},{"dx":1,"dy":1},{"dx":0,"dy":1},{"dx":2,"dy":5},{"dx":0,"dy":1},{"dx":0,"dy":5},{"dx":1,"dy":5},{"dx":3,"dy":7},{"dx":2,"dy":9},{"dx":3,"dy":11},{"dx":4,"dy":18},{"dx":3,"dy":10},{"dx":5,"dy":11},{"dx":8,"dy":10},{"dx":13,"dy":15},{"dx":9,"dy":9},{"dx":12,"dy":9},{"dx":16,"dy":12},{"dx":15,"dy":7},{"dx":20,"dy":10},{"dx":24,"dy":13},{"dx":18,"dy":5},{"dx":17,"dy":3},{"dx":29,"dy":2},{"dx":20,"dy":0},{"dx":24,"dy":0},{"dx":39,"dy":-1},{"dx":36,"dy":-4},{"dx":31,"dy":-6},{"dx":50,"dy":-17},{"dx":27,"dy":-15},{"dx":21,"dy":-13},{"dx":25,"dy":-17},{"dx":17,"dy":-12},{"dx":16,"dy":-16},{"dx":17,"dy":-24},{"dx":7,"dy":-16},{"dx":6,"dy":-16},{"dx":8,"dy":-28},{"dx":7,"dy":-17},{"dx":7,"dy":-17},{"dx":4,"dy":-19},{"dx":0,"dy":-14},{"dx":-4,"dy":-10},{"dx":-11,"dy":-16},{"dx":-7,"dy":-8},{"dx":-10,"dy":-13},{"dx":-15,"dy":-14},{"dx":-11,"dy":-8},{"dx":-14,"dy":-8},{"dx":-33,"dy":-12},{"dx":-22,"dy":-10},{"dx":-30,"dy":-10},{"dx":-28,"dy":-8},{"dx":-22,"dy":-4},{"dx":-23,"dy":0},{"dx":-44,"dy":2},{"dx":-28,"dy":4},{"dx":-27,"dy":6},{"dx":-35,"dy":11},{"dx":-27,"dy":10},{"dx":-34,"dy":19},{"dx":-50,"dy":39},{"dx":-24,"dy":25},{"dx":-18,"dy":25},{"dx":-16,"dy":42},{"dx":-3,"dy":37},{"dx":2,"dy":48},{"dx":14,"dy":69},{"dx":13,"dy":43},{"dx":14,"dy":32},{"dx":23,"dy":36},{"dx":13,"dy":11},{"dx":14,"dy":13},{"dx":33,"dy":26},{"dx":20,"dy":15},{"dx":18,"dy":8},{"dx":23,"dy":7},{"dx":16,"dy":4},{"dx":20,"dy":2},{"dx":35,"dy":-1},{"dx":36,"dy":-10},{"dx":32,"dy":-20},{"dx":49,"dy":-32},{"dx":25,"dy":-12},{"dx":24,"dy":-16},{"dx":40,"dy":-35},{"dx":24,"dy":-22},{"dx":16,"dy":-16},{"dx":15,"dy":-21},{"dx":7,"dy":-14},{"dx":9,"dy":-14},{"dx":17,"dy":-26},{"dx":10,"dy":-26},{"dx":6,"dy":-16},{"dx":5,"dy":-18},{"dx":3,"dy":-13},{"dx":0,"dy":-12},{"dx":-3,"dy":-19},{"dx":-7,"dy":-13},{"dx":-11,"dy":-17},{"dx":-17,"dy":-13},{"dx":-12,"dy":-8},{"dx":-21,"dy":-9},{"dx":-29,"dy":-12},{"dx":-14,"dy":-8},{"dx":-12,"dy":-5},{"dx":-14,"dy":-8},{"dx":-12,"dy":-6},{"dx":-25,"dy":-5},{"dx":-28,"dy":-6},{"dx":-19,"dy":-3},{"dx":-15,"dy":-2},{"dx":-20,"dy":-2},{"dx":-19,"dy":0},{"dx":-34,"dy":1},{"dx":-45,"dy":3},{"dx":-24,"dy":1},{"dx":-14,"dy":1},{"dx":-17,"dy":3},{"dx":-13,"dy":3},{"dx":-14,"dy":6},{"dx":-28,"dy":17},{"dx":-20,"dy":15},{"dx":-14,"dy":18},{"dx":-18,"dy":37},{"dx":-13,"dy":33},{"dx":-15,"dy":36},{"dx":-21,"dy":42},{"dx":-10,"dy":24},{"dx":-10,"dy":21},{"dx":-8,"dy":20},{"dx":-14,"dy":21},{"dx":-10,"dy":13},{"dx":-13,"dy":16},{"dx":-12,"dy":7},{"dx":-10,"dy":4},{"dx":-18,"dy":7},{"dx":-12,"dy":3},{"dx":-12,"dy":3},{"dx":-12,"dy":3},{"dx":-7,"dy":1},{"dx":-8,"dy":0},{"dx":-11,"dy":0},{"dx":-8,"dy":-2},{"dx":-12,"dy":-4},{"dx":-18,"dy":-12},{"dx":-13,"dy":-10},{"dx":-17,"dy":-10},{"dx":-36,"dy":-21},{"dx":-14,"dy":-11},{"dx":-7,"dy":-9},{"dx":-5,"dy":-13},{"dx":-2,"dy":-16},{"dx":1,"dy":-15},{"dx":2,"dy":-20},{"dx":2,"dy":-15},{"dx":2,"dy":-11},{"dx":2,"dy":-16},{"dx":3,"dy":-14},{"dx":8,"dy":-19},{"dx":15,"dy":-22},{"dx":21,"dy":-21},{"dx":8,"dy":-11},{"dx":9,"dy":-8},{"dx":17,"dy":-12},{"dx":13,"dy":-7},{"dx":26,"dy":-10},{"dx":24,"dy":-11},{"dx":32,"dy":-7},{"dx":32,"dy":-5},{"dx":48,"dy":2},{"dx":35,"dy":7},{"dx":35,"dy":12},{"dx":56,"dy":35},{"dx":27,"dy":25},{"dx":27,"dy":43},{"dx":28,"dy":59},{"dx":11,"dy":36},{"dx":6,"dy":35},{"dx":3,"dy":47},{"dx":-9,"dy":41},{"dx":-10,"dy":38},{"dx":-20,"dy":65},{"dx":-13,"dy":26},{"dx":-18,"dy":34},{"dx":-16,"dy":22},{"dx":-10,"dy":6},{"dx":-15,"dy":4},{"dx":-23,"dy":7},{"dx":-15,"dy":2},{"dx":-22,"dy":-2},{"dx":-35,"dy":-10},{"dx":-36,"dy":-31},{"dx":-34,"dy":-33},{"dx":-51,"dy":-54},{"dx":-27,"dy":-29},{"dx":-29,"dy":-29},{"dx":-30,"dy":-45},{"dx":-10,"dy":-26},{"dx":-6,"dy":-18},{"dx":-2,"dy":-26},{"dx":4,"dy":-16},{"dx":17,"dy":-29},{"dx":27,"dy":-37},{"dx":13,"dy":-13},{"dx":15,"dy":-14},{"dx":21,"dy":-22},{"dx":19,"dy":-17},{"dx":27,"dy":-17},{"dx":51,"dy":-25},{"dx":28,"dy":-14},{"dx":25,"dy":-10},{"dx":35,"dy":-8},{"dx":29,"dy":-3},{"dx":23,"dy":0},{"dx":33,"dy":2},{"dx":14,"dy":2},{"dx":14,"dy":4},{"dx":24,"dy":14},{"dx":13,"dy":12},{"dx":12,"dy":21},{"dx":13,"dy":37},{"dx":6,"dy":35},{"dx":3,"dy":30},{"dx":2,"dy":47},{"dx":-2,"dy":32},{"dx":-4,"dy":31},{"dx":-15,"dy":49},{"dx":-10,"dy":25},{"dx":-6,"dy":11},{"dx":-14,"dy":20},{"dx":-15,"dy":16},{"dx":-18,"dy":11},{"dx":-21,"dy":7},{"dx":-16,"dy":4},{"dx":-18,"dy":1},{"dx":-31,"dy":1},{"dx":-27,"dy":-8},{"dx":-32,"dy":-17},{"dx":-51,"dy":-36},{"dx":-41,"dy":-31},{"dx":-34,"dy":-35},{"dx":-55,"dy":-50},{"dx":-32,"dy":-31},{"dx":-26,"dy":-27},{"dx":-27,"dy":-33},{"dx":-7,"dy":-14},{"dx":-5,"dy":-16},{"dx":-3,"dy":-12},{"dx":0,"dy":-8},{"dx":1,"dy":-9},{"dx":12,"dy":-19},{"dx":11,"dy":-13},{"dx":21,"dy":-22},{"dx":47,"dy":-30},{"dx":37,"dy":-20},{"dx":43,"dy":-15},{"dx":56,"dy":-20},{"dx":30,"dy":-6},{"dx":22,"dy":-2},{"dx":29,"dy":0},{"dx":27,"dy":0},{"dx":30,"dy":4},{"dx":44,"dy":14},{"dx":32,"dy":15},{"dx":27,"dy":16},{"dx":29,"dy":24},{"dx":21,"dy":20},{"dx":17,"dy":23},{"dx":15,"dy":46},{"dx":2,"dy":35},{"dx":-3,"dy":42},{"dx":-10,"dy":35},{"dx":-20,"dy":47},{"dx":-16,"dy":24},{"dx":-27,"dy":31},{"dx":-39,"dy":33},{"dx":-33,"dy":22},{"dx":-39,"dy":30},{"dx":-39,"dy":23},{"dx":-21,"dy":7},{"dx":-20,"dy":4},{"dx":-32,"dy":4},{"dx":-27,"dy":-1},{"dx":-31,"dy":-14},{"dx":-51,"dy":-38},{"dx":-33,"dy":-30},{"dx":-37,"dy":-46},{"dx":-43,"dy":-64},{"dx":-22,"dy":-35},{"dx":-16,"dy":-27},{"dx":-11,"dy":-29},{"dx":-2,"dy":-20},{"dx":0,"dy":-14},{"dx":14,"dy":-23},{"dx":18,"dy":-20},{"dx":30,"dy":-25},{"dx":47,"dy":-31},{"dx":35,"dy":-17},{"dx":40,"dy":-22},{"dx":73,"dy":-22},{"dx":53,"dy":-10},{"dx":51,"dy":-9},{"dx":57,"dy":-5},{"dx":27,"dy":0},{"dx":32,"dy":4},{"dx":37,"dy":13},{"dx":27,"dy":16},{"dx":22,"dy":18},{"dx":30,"dy":34},{"dx":24,"dy":30},{"dx":17,"dy":32},{"dx":20,"dy":61},{"dx":8,"dy":52},{"dx":3,"dy":56},{"dx":-1,"dy":50},{"dx":-4,"dy":33},{"dx":-6,"dy":13},{"dx":-14,"dy":14},{"dx":-14,"dy":10},{"dx":-18,"dy":10},{"dx":-26,"dy":11},{"dx":-19,"dy":5},{"dx":-25,"dy":2},{"dx":-58,"dy":1},{"dx":-35,"dy":0},{"dx":-38,"dy":-1},{"dx":-53,"dy":-8},{"dx":-43,"dy":-16},{"dx":-44,"dy":-20},{"dx":-70,"dy":-45},{"dx":-38,"dy":-32},{"dx":-41,"dy":-31},{"dx":-51,"dy":-46},{"dx":-32,"dy":-31},{"dx":-24,"dy":-25},{"dx":-21,"dy":-25},{"dx":-8,"dy":-14},{"dx":-2,"dy":-4},{"dx":-3,"dy":-12},{"dx":1,"dy":-6},{"dx":3,"dy":-7},{"dx":8,"dy":-15},{"dx":9,"dy":-11},{"dx":18,"dy":-17},{"dx":41,"dy":-30},{"dx":33,"dy":-18},{"dx":27,"dy":-14},{"dx":36,"dy":-18},{"dx":21,"dy":-7},{"dx":29,"dy":-6},{"dx":38,"dy":-5},{"dx":28,"dy":-3},{"dx":20,"dy":-1},{"dx":26,"dy":-2},{"dx":16,"dy":-1},{"dx":15,"dy":-1},{"dx":22,"dy":0},{"dx":14,"dy":3},{"dx":16,"dy":5},{"dx":25,"dy":10},{"dx":15,"dy":12},{"dx":19,"dy":16},{"dx":24,"dy":25},{"dx":17,"dy":27},{"dx":11,"dy":29},{"dx":9,"dy":44},{"dx":-1,"dy":25},{"dx":-7,"dy":30},{"dx":-19,"dy":39},{"dx":-16,"dy":26},{"dx":-14,"dy":15},{"dx":-15,"dy":16},{"dx":-13,"dy":11},{"dx":-16,"dy":17},{"dx":-29,"dy":19},{"dx":-23,"dy":9},{"dx":-16,"dy":7},{"dx":-24,"dy":6},{"dx":-14,"dy":2},{"dx":-14,"dy":0},{"dx":-20,"dy":-1},{"dx":-15,"dy":-2},{"dx":-14,"dy":-6},{"dx":-25,"dy":-17},{"dx":-16,"dy":-13},{"dx":-15,"dy":-11},{"dx":-23,"dy":-16},{"dx":-12,"dy":-12},{"dx":-10,"dy":-9},{"dx":-9,"dy":-10},{"dx":-7,"dy":-5},{"dx":-5,"dy":-4},{"dx":-4,"dy":-3},{"dx":-1,"dy":0},{"dx":-1,"dy":0},{"dx":0,"dy":0},{"dx":0,"dy":0},{"dx":0,"dy":0},{"dx":5,"dy":22},{"dx":8,"dy":15},{"dx":11,"dy":17},{"dx":21,"dy":34},{"dx":23,"dy":22},{"dx":21,"dy":17},{"dx":42,"dy":31},{"dx":22,"dy":10},{"dx":25,"dy":6},{"dx":22,"dy":1},{"dx":35,"dy":-10},{"dx":35,"dy":-19},{"dx":27,"dy":-15},{"dx":29,"dy":-9},{"dx":20,"dy":-10},{"dx":25,"dy":-16},{"dx":39,"dy":-25},{"dx":28,"dy":-16}],"trial_type":"plugin-moving-dots-2","trial_index":20,"plugin_version":"0.0.1","time_elapsed":106785},{"task":"fixation","rt":1922,"stimulus":"<div style=\"font-size:60px;\">+</div>","response":" ","trial_type":"html-keyboard-response","trial_index":21,"plugin_version":"2.1.0","time_elapsed":108709},{"task":"movingdots","control_change":0,"mouse_data":[{"dx":0,"dy":0},{"dx":0,"dy":0},{"dx":0,"dy":0},{"dx":0,"dy":0},{"dx":0,"dy":0},{"dx":0,"dy":0},{"dx":0,"dy":0},{"dx":0,"dy":0},{"dx":0,"dy":0},{"dx":0,"dy":0},{"dx":0,"dy":0},{"dx":0,"dy":0},{"dx":0,"dy":0},{"dx":0,"dy":0},{"dx":0,"dy":0},{"dx":0,"dy":0},{"dx":0,"dy":0},{"dx":0,"dy":0},{"dx":0,"dy":0},{"dx":0,"dy":0},{"dx":0,"dy":0},{"dx":0,"dy":0},{"dx":0,"dy":0},{"dx":0,"dy":0},{"dx":0,"dy":0},{"dx":0,"dy":0},{"dx":0,"dy":0},{"dx":0,"dy":0},{"dx":0,"dy":0},{"dx":0,"dy":0},{"dx":0,"dy":0},{"dx":0,"dy":0},{"dx":0,"dy":0},{"dx":0,"dy":0},{"dx":0,"dy":0},{"dx":0,"dy":0},{"dx":0,"dy":0},{"dx":0,"dy":0},{"dx":0,"dy":0},{"dx":0,"dy":0},{"dx":0,"dy":0},{"dx":0,"dy":0},{"dx":0,"dy":0},{"dx":0,"dy":0},{"dx":0,"dy":0},{"dx":0,"dy":0},{"dx":0,"dy":0},{"dx":0,"dy":0},{"dx":0,"dy":0},{"dx":0,"dy":0},{"dx":0,"dy":0},{"dx":0,"dy":0},{"dx":0,"dy":0},{"dx":0,"dy":0},{"dx":0,"dy":0},{"dx":0,"dy":0},{"dx":0,"dy":0},{"dx":0,"dy":0},{"dx":0,"dy":0},{"dx":0,"dy":0},{"dx":0,"dy":0},{"dx":0,"dy":0},{"dx":0,"dy":0},{"dx":0,"dy":0},{"dx":0,"dy":0},{"dx":0,"dy":0},{"dx":0,"dy":0},{"dx":0,"dy":0},{"dx":0,"dy":0},{"dx":0,"dy":0},{"dx":0,"dy":0},{"dx":0,"dy":0},{"dx":0,"dy":0},{"dx":0,"dy":0},{"dx":0,"dy":0},{"dx":0,"dy":0},{"dx":0,"dy":0},{"dx":0,"dy":0},{"dx":0,"dy":0},{"dx":0,"dy":0},{"dx":0,"dy":0},{"dx":0,"dy":0},{"dx":0,"dy":0},{"dx":0,"dy":0},{"dx":0,"dy":0},{"dx":0,"dy":0},{"dx":0,"dy":0},{"dx":0,"dy":0},{"dx":0,"dy":0},{"dx":0,"dy":0},{"dx":0,"dy":0},{"dx":0,"dy":0},{"dx":0,"dy":0},{"dx":0,"dy":0},{"dx":0,"dy":0},{"dx":0,"dy":0},{"dx":0,"dy":0},{"dx":0,"dy":0},{"dx":0,"dy":0},{"dx":0,"dy":0},{"dx":0,"dy":0},{"dx":0,"dy":0},{"dx":0,"dy":0},{"dx":0,"dy":0},{"dx":0,"dy":0},{"dx":0,"dy":0},{"dx":0,"dy":0},{"dx":0,"dy":0},{"dx":0,"dy":0},{"dx":0,"dy":0},{"dx":0,"dy":0},{"dx":0,"dy":0},{"dx":0,"dy":0},{"dx":0,"dy":0},{"dx":0,"dy":0},{"dx":0,"dy":0},{"dx":0,"dy":0},{"dx":0,"dy":0},{"dx":0,"dy":0},{"dx":0,"dy":0},{"dx":0,"dy":0},{"dx":0,"dy":0},{"dx":-17,"dy":-11},{"dx":-76,"dy":-36},{"dx":-150,"dy":-52},{"dx":-121,"dy":-11},{"dx":-125,"dy":6},{"dx":-189,"dy":49},{"dx":-91,"dy":50},{"dx":-32,"dy":35},{"dx":56,"dy":105},{"dx":133,"dy":74},{"dx":169,"dy":56},{"dx":228,"dy":49},{"dx":0,"dy":0},{"dx":82,"dy":11},{"dx":0,"dy":0},{"dx":0,"dy":0},{"dx":0,"dy":0},{"dx":0,"dy":0},{"dx":0,"dy":0},{"dx":0,"dy":0},{"dx":0,"dy":0},{"dx":0,"dy":0},{"dx":0,"dy":0},{"dx":0,"dy":0},{"dx":0,"dy":0},{"dx":0,"dy":0},{"dx":0,"dy":0},{"dx":0,"dy":0},{"dx":0,"dy":0},{"dx":0,"dy":0},{"dx":0,"dy":0},{"dx":0,"dy":0},{"dx":0,"dy":0},{"dx":15,"dy":-7},{"dx":36,"dy":-22},{"dx":57,"dy":-41},{"dx":38,"dy":-29},{"dx":56,"dy":-42},{"dx":99,"dy":-67},{"dx":31,"dy":-29},{"dx":6,"dy":-20},{"dx":-98,"dy":-48},{"dx":-135,"dy":-28},{"dx":-149,"dy":-23},{"dx":-190,"dy":-25},{"dx":-42,"dy":-5},{"dx":-6,"dy":0},{"dx":15,"dy":12},{"dx":91,"dy":28},{"dx":117,"dy":22},{"dx":158,"dy":22},{"dx":50,"dy":6},{"dx":8,"dy":1},{"dx":-6,"dy":0},{"dx":-42,"dy":-6},{"dx":-24,"dy":-6},{"dx":-10,"dy":-2},{"dx":0,"dy":0},{"dx":22,"dy":3},{"dx":36,"dy":10},{"dx":11,"dy":4},{"dx":5,"dy":1},{"dx":0,"dy":0},{"dx":0,"dy":0},{"dx":0,"dy":0},{"dx":0,"dy":0},{"dx":0,"dy":0},{"dx":0,"dy":0},{"dx":0,"dy":0},{"dx":0,"dy":0},{"dx":0,"dy":0},{"dx":0,"dy":0},{"dx":0,"dy":0},{"dx":0,"dy":0},{"dx":0,"dy":0},{"dx":0,"dy":0},{"dx":0,"dy":0},{"dx":0,"dy":0},{"dx":0,"dy":0},{"dx":0,"dy":0},{"dx":0,"dy":0},{"dx":0,"dy":0},{"dx":0,"dy":0},{"dx":0,"dy":0},{"dx":0,"dy":0},{"dx":0,"dy":0},{"dx":1,"dy":-6},{"dx":-3,"dy":-15},{"dx":-6,"dy":-15},{"dx":-9,"dy":-22},{"dx":-5,"dy":-11},{"dx":-2,"dy":-8},{"dx":-2,"dy":-5},{"dx":0,"dy":-2},{"dx":0,"dy":-1},{"dx":-1,"dy":-2},{"dx":0,"dy":0},{"dx":0,"dy":-1},{"dx":-3,"dy":-10},{"dx":-3,"dy":-5},{"dx":-2,"dy":-3},{"dx":-3,"dy":-5},{"dx":-3,"dy":-5},{"dx":-4,"dy":-5},{"dx":-3,"dy":-3},{"dx":-2,"dy":-4},{"dx":0,"dy":-1},{"dx":0,"dy":-7},{"dx":0,"dy":-1},{"dx":1,"dy":-6},{"dx":0,"dy":0},{"dx":0,"dy":-1},{"dx":0,"dy":0},{"dx":0,"dy":0},{"dx":0,"dy":0},{"dx":0,"dy":0},{"dx":0,"dy":0},{"dx":0,"dy":0},{"dx":0,"dy":0},{"dx":0,"dy":0},{"dx":0,"dy":0},{"dx":0,"dy":0},{"dx":0,"dy":0},{"dx":-1,"dy":0},{"dx":0,"dy":0},{"dx":-2,"dy":1},{"dx":-3,"dy":4},{"dx":-1,"dy":1},{"dx":-3,"dy":4},{"dx":-2,"dy":4},{"dx":-3,"dy":4},{"dx":-6,"dy":9},{"dx":-3,"dy":4},{"dx":-4,"dy":4},{"dx":-5,"dy":4},{"dx":-11,"dy":9},{"dx":-8,"dy":8},{"dx":-13,"dy":12},{"dx":-6,"dy":7},{"dx":-5,"dy":6},{"dx":-13,"dy":15},{"dx":-18,"dy":20},{"dx":-16,"dy":19},{"dx":-15,"dy":22},{"dx":-8,"dy":13},{"dx":-9,"dy":11},{"dx":-18,"dy":26},{"dx":-20,"dy":34},{"dx":-21,"dy":29},{"dx":-14,"dy":31},{"dx":-2,"dy":8},{"dx":0,"dy":1},{"dx":0,"dy":2},{"dx":-1,"dy":1},{"dx":0,"dy":0},{"dx":0,"dy":0},{"dx":8,"dy":-3},{"dx":6,"dy":-4},{"dx":14,"dy":-10},{"dx":16,"dy":-7},{"dx":17,"dy":-7},{"dx":41,"dy":-11},{"dx":25,"dy":-5},{"dx":29,"dy":-3},{"dx":43,"dy":-5},{"dx":29,"dy":-2},{"dx":25,"dy":-4},{"dx":30,"dy":-7},{"dx":14,"dy":-4},{"dx":21,"dy":-4},{"dx":29,"dy":-4},{"dx":24,"dy":-3},{"dx":19,"dy":-4},{"dx":19,"dy":-6},{"dx":13,"dy":-4},{"dx":13,"dy":-2},{"dx":12,"dy":-2},{"dx":6,"dy":-1},{"dx":5,"dy":0},{"dx":2,"dy":0},{"dx":1,"dy":0},{"dx":0,"dy":0},{"dx":0,"dy":0},{"dx":0,"dy":0},{"dx":0,"dy":0},{"dx":0,"dy":0},{"dx":0,"dy":0},{"dx":0,"dy":0},{"dx":0,"dy":0},{"dx":0,"dy":0},{"dx":0,"dy":0},{"dx":0,"dy":0},{"dx":0,"dy":0},{"dx":-5,"dy":-9},{"dx":-8,"dy":-20},{"dx":-9,"dy":-17},{"dx":-12,"dy":-19},{"dx":-13,"dy":-19},{"dx":-7,"dy":-12},{"dx":-6,"dy":-13},{"dx":-11,"dy":-19},{"dx":-11,"dy":-13},{"dx":-12,"dy":-16},{"dx":-9,"dy":-12},{"dx":-8,"dy":-9},{"dx":-6,"dy":-6},{"dx":-10,"dy":-8},{"dx":-14,"dy":-14},{"dx":-6,"dy":-8},{"dx":-4,"dy":-8},{"dx":-2,"dy":-6},{"dx":-1,"dy":-1},{"dx":0,"dy":-1},{"dx":-3,"dy":-10},{"dx":-1,"dy":-5},{"dx":-1,"dy":-6},{"dx":0,"dy":-1},{"dx":0,"dy":-1},{"dx":0,"dy":0},{"dx":0,"dy":-1},{"dx":0,"dy":0},{"dx":0,"dy":0},{"dx":0,"dy":0},{"dx":0,"dy":0},{"dx":0,"dy":0},{"dx":0,"dy":0},{"dx":0,"dy":0},{"dx":0,"dy":0},{"dx":0,"dy":0},{"dx":0,"dy":0},{"dx":0,"dy":0},{"dx":0,"dy":0},{"dx":0,"dy":0},{"dx":0,"dy":0},{"dx":0,"dy":0},{"dx":0,"dy":0},{"dx":0,"dy":0},{"dx":0,"dy":0},{"dx":0,"dy":0},{"dx":-6,"dy":3},{"dx":-12,"dy":8},{"dx":-7,"dy":4},{"dx":-11,"dy":5},{"dx":-21,"dy":11},{"dx":-14,"dy":8},{"dx":-17,"dy":10},{"dx":-18,"dy":11},{"dx":-9,"dy":6},{"dx":-12,"dy":8},{"dx":-18,"dy":12},{"dx":-10,"dy":6},{"dx":-10,"dy":7},{"dx":-9,"dy":7},{"dx":-6,"dy":5},{"dx":-8,"dy":6},{"dx":-13,"dy":10},{"dx":-7,"dy":7},{"dx":-8,"dy":8},{"dx":-11,"dy":13},{"dx":-7,"dy":9},{"dx":-7,"dy":7},{"dx":-15,"dy":12},{"dx":-8,"dy":7},{"dx":-6,"dy":5},{"dx":-6,"dy":6},{"dx":-5,"dy":6},{"dx":-10,"dy":11},{"dx":-11,"dy":10},{"dx":-6,"dy":4},{"dx":-4,"dy":4},{"dx":-4,"dy":4},{"dx":-10,"dy":9},{"dx":-9,"dy":8},{"dx":-8,"dy":7},{"dx":-1,"dy":1},{"dx":-1,"dy":0},{"dx":-1,"dy":1},{"dx":0,"dy":0},{"dx":0,"dy":0},{"dx":0,"dy":0},{"dx":0,"dy":0},{"dx":0,"dy":0},{"dx":8,"dy":1},{"dx":19,"dy":0},{"dx":31,"dy":-1},{"dx":64,"dy":1},{"dx":62,"dy":7},{"dx":68,"dy":12},{"dx":93,"dy":17},{"dx":48,"dy":3},{"dx":46,"dy":1},{"dx":52,"dy":-4},{"dx":31,"dy":-5},{"dx":36,"dy":-5},{"dx":22,"dy":-3},{"dx":27,"dy":-3},{"dx":14,"dy":-2},{"dx":15,"dy":-4},{"dx":15,"dy":-3},{"dx":12,"dy":-2},{"dx":11,"dy":-1},{"dx":1,"dy":0},{"dx":1,"dy":0},{"dx":1,"dy":-1},{"dx":0,"dy":0},{"dx":1,"dy":0},{"dx":0,"dy":0},{"dx":0,"dy":0},{"dx":0,"dy":0},{"dx":0,"dy":0},{"dx":0,"dy":0},{"dx":0,"dy":0},{"dx":0,"dy":0},{"dx":0,"dy":0},{"dx":0,"dy":0},{"dx":0,"dy":0},{"dx":0,"dy":0},{"dx":0,"dy":0},{"dx":0,"dy":0},{"dx":0,"dy":0},{"dx":0,"dy":0},{"dx":0,"dy":0},{"dx":0,"dy":0},{"dx":-4,"dy":-1},{"dx":-5,"dy":-1},{"dx":-5,"dy":-2},{"dx":-6,"dy":-2},{"dx":-7,"dy":-3},{"dx":-17,"dy":-5},{"dx":-9,"dy":-4},{"dx":-9,"dy":-4}],"trial_type":"plugin-moving-dots-2","trial_index":22,"plugin_version":"0.0.1","time_elapsed":116218},{"task":"fixation","rt":1209,"stimulus":"<div style=\"font-size:60px;\">+</div>","response":" ","trial_type":"html-keyboard-response","trial_index":23,"plugin_version":"2.1.0","time_elapsed":117428},{"task":"movingdots","control_change":0,"mouse_data":[{"dx":0,"dy":0},{"dx":0,"dy":0},{"dx":0,"dy":0},{"dx":0,"dy":0},{"dx":0,"dy":0},{"dx":0,"dy":0},{"dx":0,"dy":0},{"dx":0,"dy":0},{"dx":0,"dy":0},{"dx":0,"dy":0},{"dx":0,"dy":0},{"dx":0,"dy":0},{"dx":0,"dy":0},{"dx":0,"dy":0},{"dx":0,"dy":0},{"dx":0,"dy":0},{"dx":0,"dy":0},{"dx":0,"dy":0},{"dx":0,"dy":0},{"dx":0,"dy":0},{"dx":0,"dy":0},{"dx":0,"dy":0},{"dx":0,"dy":0},{"dx":0,"dy":0},{"dx":0,"dy":0},{"dx":0,"dy":0},{"dx":0,"dy":0},{"dx":0,"dy":0},{"dx":0,"dy":0},{"dx":0,"dy":0},{"dx":0,"dy":0},{"dx":0,"dy":0},{"dx":0,"dy":0},{"dx":0,"dy":0},{"dx":0,"dy":0},{"dx":0,"dy":0},{"dx":0,"dy":0},{"dx":0,"dy":0},{"dx":0,"dy":0},{"dx":0,"dy":0},{"dx":0,"dy":0},{"dx":0,"dy":0},{"dx":0,"dy":0},{"dx":0,"dy":0},{"dx":0,"dy":0},{"dx":0,"dy":0},{"dx":0,"dy":0},{"dx":0,"dy":0},{"dx":0,"dy":0},{"dx":0,"dy":0},{"dx":0,"dy":0},{"dx":0,"dy":0},{"dx":-5,"dy":4},{"dx":-7,"dy":4},{"dx":-13,"dy":8},{"dx":-7,"dy":4},{"dx":-6,"dy":3},{"dx":-8,"dy":2},{"dx":-6,"dy":3},{"dx":-5,"dy":2},{"dx":-8,"dy":3},{"dx":-4,"dy":2},{"dx":-4,"dy":2},{"dx":-6,"dy":4},{"dx":-5,"dy":3},{"dx":-5,"dy":2},{"dx":-11,"dy":7},{"dx":-6,"dy":3},{"dx":-8,"dy":5},{"dx":-7,"dy":4},{"dx":-6,"dy":3},{"dx":-4,"dy":4},{"dx":-11,"dy":7},{"dx":-7,"dy":5},{"dx":-8,"dy":5},{"dx":-14,"dy":10},{"dx":-5,"dy":4},{"dx":-6,"dy":3},{"dx":-6,"dy":4},{"dx":-14,"dy":9},{"dx":-11,"dy":8},{"dx":-15,"dy":12},{"dx":-10,"dy":5},{"dx":-11,"dy":4},{"dx":-19,"dy":7},{"dx":-16,"dy":6},{"dx":-18,"dy":7},{"dx":-20,"dy":10},{"dx":-13,"dy":5},{"dx":-16,"dy":4},{"dx":-21,"dy":5},{"dx":-17,"dy":2},{"dx":-15,"dy":2},{"dx":-29,"dy":1},{"dx":-22,"dy":0},{"dx":-23,"dy":-3},{"dx":-30,"dy":-7},{"dx":-11,"dy":-5},{"dx":-7,"dy":-4},{"dx":-6,"dy":-5},{"dx":-2,"dy":-4},{"dx":-2,"dy":-5},{"dx":-2,"dy":-6},{"dx":0,"dy":-1},{"dx":-1,"dy":-5},{"dx":-1,"dy":-12},{"dx":0,"dy":-12},{"dx":0,"dy":0},{"dx":0,"dy":-5},{"dx":0,"dy":0},{"dx":0,"dy":0},{"dx":0,"dy":0},{"dx":0,"dy":0},{"dx":0,"dy":0},{"dx":0,"dy":0},{"dx":0,"dy":0},{"dx":0,"dy":0},{"dx":0,"dy":0},{"dx":0,"dy":0},{"dx":0,"dy":0},{"dx":0,"dy":0},{"dx":0,"dy":0},{"dx":0,"dy":0},{"dx":0,"dy":0},{"dx":0,"dy":0},{"dx":0,"dy":0},{"dx":0,"dy":0},{"dx":0,"dy":0},{"dx":0,"dy":0},{"dx":0,"dy":0},{"dx":0,"dy":0},{"dx":0,"dy":0},{"dx":0,"dy":0},{"dx":0,"dy":0},{"dx":0,"dy":0},{"dx":0,"dy":0},{"dx":0,"dy":0},{"dx":-10,"dy":-14},{"dx":-8,"dy":-9},{"dx":-23,"dy":-36},{"dx":-12,"dy":-16},{"dx":-6,"dy":-11},{"dx":-17,"dy":-37},{"dx":-13,"dy":-26},{"dx":-11,"dy":-31},{"dx":-16,"dy":-39},{"dx":-6,"dy":-18},{"dx":-4,"dy":-14},{"dx":-7,"dy":-20},{"dx":-4,"dy":-13},{"dx":-4,"dy":-12},{"dx":-4,"dy":-18},{"dx":-2,"dy":-10},{"dx":0,"dy":-8},{"dx":2,"dy":-9},{"dx":4,"dy":-6},{"dx":11,"dy":-7},{"dx":14,"dy":-7},{"dx":13,"dy":-3},{"dx":13,"dy":-2},{"dx":12,"dy":-1},{"dx":7,"dy":1},{"dx":7,"dy":2},{"dx":15,"dy":7},{"dx":12,"dy":6},{"dx":22,"dy":13},{"dx":29,"dy":21},{"dx":10,"dy":12},{"dx":7,"dy":13},{"dx":5,"dy":22},{"dx":1,"dy":15},{"dx":0,"dy":17},{"dx":-3,"dy":26},{"dx":-5,"dy":22},{"dx":-6,"dy":25},{"dx":-7,"dy":30},{"dx":-2,"dy":21},{"dx":-1,"dy":17},{"dx":-3,"dy":35},{"dx":-1,"dy":15},{"dx":-2,"dy":16},{"dx":-2,"dy":32},{"dx":0,"dy":5},{"dx":2,"dy":15},{"dx":3,"dy":18},{"dx":4,"dy":15},{"dx":3,"dy":6},{"dx":6,"dy":3},{"dx":4,"dy":2},{"dx":5,"dy":1},{"dx":10,"dy":1},{"dx":6,"dy":0},{"dx":8,"dy":-2},{"dx":12,"dy":-2},{"dx":11,"dy":-5},{"dx":9,"dy":-9},{"dx":9,"dy":-23},{"dx":3,"dy":-14},{"dx":2,"dy":-28},{"dx":6,"dy":-75},{"dx":5,"dy":-46},{"dx":0,"dy":-35},{"dx":0,"dy":-28},{"dx":-1,"dy":-30},{"dx":1,"dy":-17},{"dx":1,"dy":-13},{"dx":6,"dy":-18},{"dx":5,"dy":-10},{"dx":7,"dy":-10},{"dx":12,"dy":-16},{"dx":7,"dy":-10},{"dx":8,"dy":-8},{"dx":6,"dy":-7},{"dx":9,"dy":-10},{"dx":15,"dy":-10},{"dx":35,"dy":-15},{"dx":26,"dy":-7},{"dx":24,"dy":-5},{"dx":35,"dy":0},{"dx":18,"dy":2},{"dx":17,"dy":3},{"dx":20,"dy":8},{"dx":11,"dy":8},{"dx":7,"dy":8},{"dx":11,"dy":27},{"dx":5,"dy":25},{"dx":3,"dy":29},{"dx":-2,"dy":46},{"dx":-4,"dy":29},{"dx":-6,"dy":26},{"dx":-16,"dy":48},{"dx":-13,"dy":31},{"dx":-14,"dy":33},{"dx":-17,"dy":36},{"dx":-13,"dy":24},{"dx":-9,"dy":17},{"dx":-9,"dy":17},{"dx":-6,"dy":14},{"dx":-5,"dy":14},{"dx":-6,"dy":19},{"dx":-3,"dy":16},{"dx":0,"dy":12},{"dx":0,"dy":8},{"dx":0,"dy":5},{"dx":0,"dy":0},{"dx":3,"dy":4},{"dx":1,"dy":1},{"dx":5,"dy":2},{"dx":1,"dy":0},{"dx":5,"dy":0},{"dx":5,"dy":1},{"dx":12,"dy":0},{"dx":7,"dy":0},{"dx":5,"dy":-2},{"dx":5,"dy":-3},{"dx":7,"dy":-11},{"dx":11,"dy":-19},{"dx":16,"dy":-21},{"dx":16,"dy":-23},{"dx":22,"dy":-26},{"dx":33,"dy":-42},{"dx":22,"dy":-39},{"dx":20,"dy":-27},{"dx":19,"dy":-29},{"dx":12,"dy":-10},{"dx":14,"dy":-10},{"dx":20,"dy":-18},{"dx":10,"dy":-16},{"dx":6,"dy":-14},{"dx":2,"dy":-18},{"dx":-1,"dy":-11},{"dx":0,"dy":-8},{"dx":0,"dy":-8},{"dx":3,"dy":-14},{"dx":3,"dy":-8},{"dx":4,"dy":-9},{"dx":0,"dy":0},{"dx":1,"dy":-2},{"dx":0,"dy":0},{"dx":0,"dy":0},{"dx":0,"dy":0},{"dx":0,"dy":0},{"dx":0,"dy":0},{"dx":0,"dy":0},{"dx":0,"dy":0},{"dx":0,"dy":0},{"dx":0,"dy":0},{"dx":0,"dy":0},{"dx":0,"dy":0},{"dx":0,"dy":0},{"dx":0,"dy":0},{"dx":0,"dy":0},{"dx":0,"dy":0},{"dx":0,"dy":0},{"dx":0,"dy":0},{"dx":0,"dy":0},{"dx":0,"dy":0},{"dx":0,"dy":0},{"dx":14,"dy":-19},{"dx":15,"dy":-19},{"dx":37,"dy":-36},{"dx":18,"dy":-14},{"dx":15,"dy":-10},{"dx":5,"dy":-2},{"dx":7,"dy":-2},{"dx":11,"dy":0},{"dx":7,"dy":1},{"dx":11,"dy":5},{"dx":17,"dy":10},{"dx":4,"dy":4},{"dx":5,"dy":5},{"dx":6,"dy":11},{"dx":1,"dy":4},{"dx":1,"dy":5},{"dx":-3,"dy":22},{"dx":-15,"dy":33},{"dx":-26,"dy":46},{"dx":-33,"dy":62},{"dx":-13,"dy":26},{"dx":-8,"dy":20},{"dx":-22,"dy":58},{"dx":-16,"dy":62},{"dx":-11,"dy":28},{"dx":-9,"dy":28},{"dx":-3,"dy":16},{"dx":0,"dy":7},{"dx":2,"dy":6},{"dx":0,"dy":0},{"dx":4,"dy":4},{"dx":9,"dy":14},{"dx":9,"dy":19},{"dx":4,"dy":6},{"dx":5,"dy":6},{"dx":4,"dy":2},{"dx":5,"dy":1},{"dx":12,"dy":1},{"dx":7,"dy":0},{"dx":12,"dy":0},{"dx":17,"dy":-2},{"dx":10,"dy":-2},{"dx":7,"dy":-3},{"dx":13,"dy":-3},{"dx":0,"dy":0},{"dx":29,"dy":-20},{"dx":18,"dy":-12},{"dx":4,"dy":-4},{"dx":1,"dy":-2},{"dx":3,"dy":-11},{"dx":4,"dy":-14},{"dx":22,"dy":-43},{"dx":44,"dy":-78},{"dx":79,"dy":-134},{"dx":32,"dy":-54},{"dx":7,"dy":-25},{"dx":3,"dy":-24},{"dx":1,"dy":-13},{"dx":1,"dy":-6},{"dx":0,"dy":-7},{"dx":0,"dy":-1},{"dx":0,"dy":0},{"dx":11,"dy":-2},{"dx":4,"dy":0},{"dx":5,"dy":-4},{"dx":5,"dy":-4},{"dx":5,"dy":-6},{"dx":17,"dy":-9},{"dx":13,"dy":-4},{"dx":10,"dy":-3},{"dx":15,"dy":-4},{"dx":10,"dy":-2},{"dx":9,"dy":-2},{"dx":7,"dy":0},{"dx":20,"dy":3},{"dx":12,"dy":4},{"dx":6,"dy":2},{"dx":4,"dy":3},{"dx":4,"dy":3},{"dx":4,"dy":6},{"dx":7,"dy":21},{"dx":0,"dy":18},{"dx":-8,"dy":37},{"dx":-47,"dy":76},{"dx":-33,"dy":39},{"dx":-34,"dy":36},{"dx":-27,"dy":34},{"dx":-11,"dy":13},{"dx":-10,"dy":11},{"dx":-12,"dy":13},{"dx":-9,"dy":8},{"dx":-8,"dy":7},{"dx":-7,"dy":7},{"dx":-3,"dy":5},{"dx":-2,"dy":5},{"dx":-3,"dy":11},{"dx":-2,"dy":5},{"dx":-2,"dy":6},{"dx":-1,"dy":5},{"dx":0,"dy":5},{"dx":0,"dy":7},{"dx":0,"dy":6},{"dx":0,"dy":6},{"dx":0,"dy":4},{"dx":0,"dy":6},{"dx":1,"dy":5},{"dx":3,"dy":5},{"dx":7,"dy":15},{"dx":6,"dy":11},{"dx":7,"dy":7},{"dx":10,"dy":6},{"dx":5,"dy":2},{"dx":17,"dy":-1},{"dx":65,"dy":-32},{"dx":54,"dy":-29},{"dx":42,"dy":-15},{"dx":20,"dy":-7},{"dx":6,"dy":-3},{"dx":8,"dy":-3},{"dx":10,"dy":-2},{"dx":0,"dy":0},{"dx":0,"dy":0},{"dx":0,"dy":0},{"dx":0,"dy":0},{"dx":0,"dy":0},{"dx":0,"dy":0},{"dx":0,"dy":0},{"dx":0,"dy":0},{"dx":0,"dy":0},{"dx":0,"dy":0},{"dx":0,"dy":0},{"dx":0,"dy":0},{"dx":0,"dy":0},{"dx":0,"dy":0},{"dx":0,"dy":0},{"dx":0,"dy":0},{"dx":0,"dy":0},{"dx":0,"dy":0},{"dx":0,"dy":0},{"dx":0,"dy":0},{"dx":0,"dy":0},{"dx":13,"dy":-9},{"dx":22,"dy":-14},{"dx":22,"dy":-18},{"dx":16,"dy":-18},{"dx":21,"dy":-22},{"dx":35,"dy":-24},{"dx":18,"dy":-15},{"dx":17,"dy":-18},{"dx":18,"dy":-33},{"dx":0,"dy":0},{"dx":10,"dy":-35},{"dx":0,"dy":-28},{"dx":-10,"dy":-22},{"dx":-24,"dy":-36}],"trial_type":"plugin-moving-dots-2","trial_index":24,"plugin_version":"0.0.1","time_elapsed":124934},{"task":"fixation","rt":1597,"stimulus":"<div style=\"font-size:60px;\">+</div>","response":" ","trial_type":"html-keyboard-response","trial_index":25,"plugin_version":"2.1.0","time_elapsed":126533},{"task":"movingdots","control_change":0,"mouse_data":[{"dx":0,"dy":0},{"dx":0,"dy":0},{"dx":0,"dy":0},{"dx":0,"dy":0},{"dx":0,"dy":0},{"dx":0,"dy":0},{"dx":0,"dy":0},{"dx":0,"dy":0},{"dx":0,"dy":0},{"dx":0,"dy":0},{"dx":0,"dy":0},{"dx":0,"dy":0},{"dx":0,"dy":0},{"dx":0,"dy":0},{"dx":0,"dy":0},{"dx":0,"dy":0},{"dx":0,"dy":0},{"dx":0,"dy":0},{"dx":0,"dy":0},{"dx":0,"dy":0},{"dx":0,"dy":0},{"dx":0,"dy":0},{"dx":0,"dy":0},{"dx":0,"dy":0},{"dx":0,"dy":0},{"dx":0,"dy":0},{"dx":0,"dy":0},{"dx":0,"dy":0},{"dx":0,"dy":0},{"dx":0,"dy":0},{"dx":0,"dy":0},{"dx":0,"dy":0},{"dx":0,"dy":0},{"dx":0,"dy":0},{"dx":0,"dy":0},{"dx":0,"dy":0},{"dx":0,"dy":0},{"dx":0,"dy":0},{"dx":0,"dy":0},{"dx":0,"dy":0},{"dx":0,"dy":0},{"dx":0,"dy":-1},{"dx":0,"dy":-1},{"dx":4,"dy":-1},{"dx":1,"dy":0},{"dx":9,"dy":-3},{"dx":8,