[{"success":true,"rt":6724,"trial_type":"fullscreen","trial_index":0,"plugin_version":"2.1.0","time_elapsed":7784},{"task":"fixation","rt":3800,"stimulus":"<div style=\"font-size:60px;\">+</div>","response":" ","trial_type":"html-keyboard-response","trial_index":1,"plugin_version":"2.1.0","time_elapsed":11588},{"task":"movingdots","control_change":0,"mouse_data":[{"dx":0,"dy":0},{"dx":0,"dy":0},{"dx":0,"dy":0},{"dx":0,"dy":0},{"dx":0,"dy":0},{"dx":0,"dy":0},{"dx":0,"dy":0},{"dx":0,"dy":0},{"dx":0,"dy":0},{"dx":0,"dy":0},{"dx":0,"dy":0},{"dx":0,"dy":0},{"dx":0,"dy":0},{"dx":0,"dy":0},{"dx":0,"dy":0},{"dx":0,"dy":0},{"dx":0,"dy":0},{"dx":0,"dy":0},{"dx":0,"dy":0},{"dx":0,"dy":0},{"dx":0,"dy":0},{"dx":0,"dy":0},{"dx":0,"dy":0},{"dx":0,"dy":0},{"dx":0,"dy":0},{"dx":0,"dy":0},{"dx":0,"dy":0},{"dx":0,"dy":0},{"dx":0,"dy":0},{"dx":0,"dy":0},{"dx":0,"dy":0},{"dx":0,"dy":0},{"dx":0,"dy":0},{"dx":0,"dy":0},{"dx":0,"dy":0},{"dx":0,"dy":0},{"dx":0,"dy":0},{"dx":0,"dy":0},{"dx":0,"dy":0},{"dx":0,"dy":0},{"dx":0,"dy":0},{"dx":0,"dy":0},{"dx":0,"dy":0},{"dx":0,"dy":0},{"dx":0,"dy":0},{"dx":0,"dy":0},{"dx":0,"dy":0},{"dx":0,"dy":0},{"dx":-1,"dy":0},{"dx":-2,"dy":0},{"dx":-1,"dy":0},{"dx":-4,"dy":0},{"dx":-5,"dy":1},{"dx":-5,"dy":1},{"dx":-7,"dy":2},{"dx":-1,"dy":1},{"dx":-6,"dy":1},{"dx":-9,"dy":3},{"dx":-4,"dy":2},{"dx":-1,"dy":0},{"dx":-5,"dy":1},{"dx":-5,"dy":2},{"dx":-5,"dy":2},{"dx":-4,"dy":1},{"dx":-5,"dy":2},{"dx":-1,"dy":0},{"dx":-5,"dy":2},{"dx":-5,"dy":1},{"dx":-1,"dy":0},{"dx":-9,"dy":2},{"dx":0,"dy":0},{"dx":-5,"dy":0},{"dx":-5,"dy":0},{"dx":-4,"dy":0},{"dx":-1,"dy":0},{"dx":-5,"dy":0},{"dx":-5,"dy":0},{"dx":-1,"dy":0},{"dx":-5,"dy":0},{"dx":-5,"dy":0},{"dx":-4,"dy":-2},{"dx":-6,"dy":0},{"dx":-5,"dy":-1},{"dx":-5,"dy":-2},{"dx":-5,"dy":-1},{"dx":-4,"dy":-2},{"dx":-5,"dy":-3},{"dx":-4,"dy":-1},{"dx":-4,"dy":-2},{"dx":-4,"dy":-2},{"dx":-7,"dy":-5},{"dx":-6,"dy":-3},{"dx":-5,"dy":-4},{"dx":-7,"dy":-5},{"dx":-6,"dy":-4},{"dx":-5,"dy":-3},{"dx":-8,"dy":-5},{"dx":-5,"dy":-4},{"dx":-3,"dy":-4},{"dx":-2,"dy":-6},{"dx":-2,"dy":-6},{"dx":-1,"dy":-7},{"dx":0,"dy":-14},{"dx":0,"dy":-7},{"dx":3,"dy":-9},{"dx":4,"dy":-7},{"dx":8,"dy":-8},{"dx":5,"dy":-3},{"dx":13,"dy":-9},{"dx":14,"dy":-10},{"dx":24,"dy":-19},{"dx":31,"dy":-25},{"dx":41,"dy":-31},{"dx":22,"dy":-17},{"dx":13,"dy":-11},{"dx":12,"dy":-13},{"dx":5,"dy":-6},{"dx":2,"dy":-4},{"dx":3,"dy":-4},{"dx":1,"dy":-7},{"dx":0,"dy":-8},{"dx":-2,"dy":-18},{"dx":-3,"dy":-11},{"dx":-3,"dy":-9},{"dx":-6,"dy":-15},{"dx":-6,"dy":-8},{"dx":-6,"dy":-8},{"dx":-11,"dy":-9},{"dx":-6,"dy":-2},{"dx":-13,"dy":-4},{"dx":-6,"dy":-1},{"dx":-5,"dy":0},{"dx":-8,"dy":0},{"dx":-7,"dy":0},{"dx":-11,"dy":1},{"dx":-18,"dy":3},{"dx":-14,"dy":5},{"dx":-11,"dy":6},{"dx":-15,"dy":10},{"dx":-3,"dy":4},{"dx":-5,"dy":6},{"dx":-3,"dy":6},{"dx":-4,"dy":12},{"dx":-3,"dy":12},{"dx":-3,"dy":14},{"dx":-2,"dy":15},{"dx":-1,"dy":5},{"dx":0,"dy":5},{"dx":0,"dy":6},{"dx":-1,"dy":7},{"dx":0,"dy":6},{"dx":2,"dy":16},{"dx":6,"dy":11},{"dx":14,"dy":23},{"dx":24,"dy":37},{"dx":6,"dy":15},{"dx":1,"dy":8},{"dx":0,"dy":16},{"dx":-4,"dy":8},{"dx":-4,"dy":5},{"dx":-4,"dy":3},{"dx":-5,"dy":2},{"dx":-1,"dy":0},{"dx":-3,"dy":6},{"dx":0,"dy":0},{"dx":0,"dy":0},{"dx":0,"dy":0},{"dx":0,"dy":0},{"dx":0,"dy":0},{"dx":0,"dy":0},{"dx":0,"dy":0},{"dx":0,"dy":0},{"dx":0,"dy":0},{"dx":0,"dy":0},{"dx":0,"dy":0},{"dx":0,"dy":0},{"dx":0,"dy":0},{"dx":0,"dy":0},{"dx":0,"dy":0},{"dx":0,"dy":0},{"dx":0,"dy":0},{"dx":0,"dy":0},{"dx":0,"dy":0},{"dx":-6,"dy":0},{"dx":-23,"dy":-4},{"dx":-25,"dy":-10},{"dx":-15,"dy":-8},{"dx":-11,"dy":-6},{"dx":-7,"dy":-2},{"dx":-5,"dy":0},{"dx":-17,"dy":3},{"dx":-12,"dy":7},{"dx":-12,"dy":10},{"dx":-14,"dy":13},{"dx":-6,"dy":5},{"dx":-6,"dy":4},{"dx":-12,"dy":4},{"dx":-12,"dy":3},{"dx":-16,"dy":4},{"dx":-31,"dy":5},{"dx":-23,"dy":0},{"dx":-22,"dy":-3},{"dx":-26,"dy":-5},{"dx":-13,"dy":-6},{"dx":-11,"dy":-7},{"dx":-14,"dy":-14},{"dx":-7,"dy":-16},{"dx":-4,"dy":-12},{"dx":0,"dy":-14},{"dx":9,"dy":-40},{"dx":16,"dy":-33},{"dx":34,"dy":-60},{"dx":25,"dy":-29},{"dx":17,"dy":-20},{"dx":22,"dy":-14},{"dx":16,"dy":-2},{"dx":16,"dy":8},{"dx":38,"dy":36},{"dx":24,"dy":40},{"dx":23,"dy":43},{"dx":32,"dy":46},{"dx":14,"dy":10},{"dx":26,"dy":6},{"dx":58,"dy":-1},{"dx":39,"dy":-3},{"dx":48,"dy":-4},{"dx":51,"dy":-3},{"dx":26,"dy":-1},{"dx":27,"dy":-3},{"dx":37,"dy":-7},{"dx":28,"dy":-5},{"dx":23,"dy":-4},{"dx":40,"dy":-8},{"dx":19,"dy":-8},{"dx":12,"dy":-9},{"dx":8,"dy":-13},{"dx":1,"dy":-10},{"dx":-4,"dy":-9},{"dx":-34,"dy":-14},{"dx":-32,"dy":-6},{"dx":-26,"dy":-3},{"dx":-22,"dy":1},{"dx":-12,"dy":6},{"dx":-11,"dy":10},{"dx":-19,"dy":31},{"dx":-9,"dy":28},{"dx":-3,"dy":30},{"dx":6,"dy":52},{"dx":10,"dy":35},{"dx":14,"dy":31},{"dx":11,"dy":22},{"dx":15,"dy":20},{"dx":13,"dy":10},{"dx":19,"dy":10},{"dx":9,"dy":5},{"dx":10,"dy":2},{"dx":13,"dy":0},{"dx":21,"dy":-8},{"dx":17,"dy":-11},{"dx":19,"dy":-16},{"dx":19,"dy":-18},{"dx":9,"dy":-9},{"dx":7,"dy":-12},{"dx":10,"dy":-20},{"dx":6,"dy":-12},{"dx":3,"dy":-10},{"dx":3,"dy":-11},{"dx":1,"dy":-14},{"dx":0,"dy":-9},{"dx":0,"dy":-6},{"dx":0,"dy":0},{"dx":0,"dy":-1},{"dx":1,"dy":-6},{"dx":2,"dy":-4},{"dx":0,"dy":-1},{"dx":20,"dy":-3},{"dx":16,"dy":0},{"dx":14,"dy":0},{"dx":22,"dy":3},{"dx":11,"dy":4},{"dx":4,"dy":3},{"dx":9,"dy":8},{"dx":2,"dy":7},{"dx":2,"dy":9},{"dx":-3,"dy":24},{"dx":-8,"dy":31},{"dx":-14,"dy":36},{"dx":-22,"dy":48},{"dx":-6,"dy":15},{"dx":-5,"dy":13},{"dx":-8,"dy":14},{"dx":-8,"dy":9},{"dx":-13,"dy":9},{"dx":-24,"dy":9},{"dx":-24,"dy":3},{"dx":-17,"dy":1},{"dx":-63,"dy":-10},{"dx":-54,"dy":-12},{"dx":-54,"dy":-8},{"dx":-81,"dy":-2},{"dx":-59,"dy":5},{"dx":-51,"dy":-1},{"dx":-62,"dy":-10},{"dx":-31,"dy":-9},{"dx":-28,"dy":-6},{"dx":-52,"dy":1},{"dx":-41,"dy":2},{"dx":-38,"dy":0},{"dx":-46,"dy":-8},{"dx":-20,"dy":-7},{"dx":-15,"dy":-6},{"dx":-26,"dy":-18},{"dx":-14,"dy":-22},{"dx":-11,"dy":-24},{"dx":-9,"dy":-45},{"dx":-1,"dy":-20},{"dx":-2,"dy":-17},{"dx":-2,"dy":-22},{"dx":0,"dy":-12},{"dx":0,"dy":-11},{"dx":12,"dy":-23},{"dx":17,"dy":-17},{"dx":12,"dy":-10},{"dx":15,"dy":-12},{"dx":9,"dy":-6},{"dx":10,"dy":-6},{"dx":23,"dy":-10},{"dx":23,"dy":-8},{"dx":25,"dy":-4},{"dx":33,"dy":-2},{"dx":6,"dy":0},{"dx":5,"dy":-1},{"dx":1,"dy":-1},{"dx":-1,"dy":-5},{"dx":-9,"dy":-7},{"dx":-28,"dy":-15},{"dx":-23,"dy":-9},{"dx":-17,"dy":-7},{"dx":-22,"dy":-7},{"dx":-15,"dy":-2},{"dx":-17,"dy":-1},{"dx":-34,"dy":2},{"dx":-21,"dy":6},{"dx":-22,"dy":8},{"dx":-34,"dy":17},{"dx":-15,"dy":10},{"dx":-13,"dy":12},{"dx":-15,"dy":17},{"dx":-5,"dy":13},{"dx":-4,"dy":14},{"dx":-2,"dy":34},{"dx":1,"dy":30},{"dx":7,"dy":46},{"dx":15,"dy":67},{"dx":11,"dy":39},{"dx":10,"dy":26},{"dx":21,"dy":35},{"dx":25,"dy":19},{"dx":30,"dy":17},{"dx":57,"dy":15},{"dx":39,"dy":1},{"dx":38,"dy":-7},{"dx":75,"dy":-19},{"dx":56,"dy":-12},{"dx":60,"dy":-17},{"dx":75,"dy":-29},{"dx":29,"dy":-15},{"dx":17,"dy":-12},{"dx":11,"dy":-7},{"dx":4,"dy":-3},{"dx":0,"dy":-2},{"dx":6,"dy":-17},{"dx":12,"dy":-32},{"dx":13,"dy":-32},{"dx":30,"dy":-32},{"dx":12,"dy":-11},{"dx":10,"dy":-6},{"dx":13,"dy":-3},{"dx":8,"dy":0},{"dx":6,"dy":1},{"dx":5,"dy":4},{"dx":7,"dy":10},{"dx":7,"dy":15},{"dx":6,"dy":22},{"dx":4,"dy":11},{"dx":2,"dy":10},{"dx":2,"dy":7},{"dx":3,"dy":5},{"dx":3,"dy":6},{"dx":4,"dy":12},{"dx":2,"dy":5},{"dx":0,"dy":7},{"dx":0,"dy":5},{"dx":-3,"dy":5},{"dx":-5,"dy":3},{"dx":-12,"dy":5},{"dx":-10,"dy":2},{"dx":-10,"dy":1},{"dx":-10,"dy":1},{"dx":-12,"dy":3},{"dx":-6,"dy":1},{"dx":-6,"dy":1},{"dx":-1,"dy":0},{"dx":-1,"dy":0},{"dx":0,"dy":0},{"dx":0,"dy":1},{"dx":1,"dy":3},{"dx":4,"dy":3},{"dx":12,"dy":4},{"dx":11,"dy":2},{"dx":19,"dy":4},{"dx":16,"dy":2},{"dx":15,"dy":1},{"dx":19,"dy":0},{"dx":14,"dy":-1},{"dx":16,"dy":-2},{"dx":27,"dy":-9},{"dx":28,"dy":-14},{"dx":44,"dy":-30},{"dx":49,"dy":-32},{"dx":33,"dy":-18},{"dx":25,"dy":-22},{"dx":21,"dy":-27},{"dx":35,"dy":-64},{"dx":11,"dy":-33},{"dx":9,"dy":-31},{"dx":8,"dy":-23},{"dx":1,"dy":-7},{"dx":2,"dy":-8},{"dx":1,"dy":-5},{"dx":2,"dy":-4},{"dx":0,"dy":0},{"dx":0,"dy":0},{"dx":0,"dy":0},{"dx":0,"dy":0},{"dx":0,"dy":0},{"dx":0,"dy":0},{"dx":0,"dy":0},{"dx":0,"dy":0},{"dx":0,"dy":0},{"dx":0,"dy":0},{"dx":0,"dy":0},{"dx":0,"dy":0},{"dx":0,"dy":0},{"dx":0,"dy":0},{"dx":15,"dy":-8},{"dx":48,"dy":-29},{"dx":96,"dy":-44},{"dx":64,"dy":-31},{"dx":46,"dy":-17},{"dx":32,"dy":-7},{"dx":10,"dy":0}],"trial_type":"plugin-moving-dots-2","trial_index":2,"plugin_version":"0.0.1","time_elapsed":19095},{"task":"fixation","rt":4603,"stimulus":"<div style=\"font-size:60px;\">+</div>","response":" ","trial_type":"html-keyboard-response","trial_index":3,"plugin_version":"2.1.0","time_elapsed":23699},{"task":"movingdots","control_change":0,"mouse_data":[{"dx":0,"dy":0},{"dx":0,"dy":0},{"dx":0,"dy":0},{"dx":0,"dy":0},{"dx":0,"dy":0},{"dx":0,"dy":0},{"dx":0,"dy":0},{"dx":0,"dy":0},{"dx":0,"dy":0},{"dx":0,"dy":0},{"dx":0,"dy":0},{"dx":0,"dy":0},{"dx":0,"dy":0},{"dx":0,"dy":0},{"dx":0,"dy":0},{"dx":0,"dy":0},{"dx":0,"dy":0},{"dx":0,"dy":0},{"dx":0,"dy":0},{"dx":0,"dy":0},{"dx":0,"dy":0},{"dx":0,"dy":0},{"dx":0,"dy":0},{"dx":0,"dy":0},{"dx":0,"dy":0},{"dx":0,"dy":0},{"dx":0,"dy":0},{"dx":0,"dy":0},{"dx":0,"dy":0},{"dx":0,"dy":0},{"dx":0,"dy":0},{"dx":0,"dy":0},{"dx":0,"dy":0},{"dx":0,"dy":0},{"dx":0,"dy":0},{"dx":-4,"dy":0},{"dx":-15,"dy":-1},{"dx":-12,"dy":0},{"dx":-26,"dy":-1},{"dx":-14,"dy":0},{"dx":-12,"dy":1},{"dx":-19,"dy":2},{"dx":-12,"dy":2},{"dx":-13,"dy":4},{"dx":-17,"dy":8},{"dx":-10,"dy":5},{"dx":-10,"dy":5},{"dx":-16,"dy":9},{"dx":-13,"dy":3},{"dx":-11,"dy":3},{"dx":-10,"dy":0},{"dx":-8,"dy":0},{"dx":-8,"dy":0},{"dx":-11,"dy":-1},{"dx":-4,"dy":-2},{"dx":-3,"dy":-3},{"dx":0,"dy":-1},{"dx":-1,"dy":-1},{"dx":0,"dy":0},{"dx":0,"dy":0},{"dx":0,"dy":0},{"dx":0,"dy":0},{"dx":0,"dy":0},{"dx":0,"dy":0},{"dx":0,"dy":0},{"dx":0,"dy":0},{"dx":0,"dy":0},{"dx":0,"dy":0},{"dx":0,"dy":0},{"dx":0,"dy":0},{"dx":0,"dy":0},{"dx":0,"dy":0},{"dx":0,"dy":0},{"dx":0,"dy":0},{"dx":0,"dy":0},{"dx":0,"dy":0},{"dx":0,"dy":0},{"dx":0,"dy":0},{"dx":0,"dy":0},{"dx":0,"dy":0},{"dx":0,"dy":0},{"dx":0,"dy":0},{"dx":0,"dy":0},{"dx":0,"dy":0},{"dx":0,"dy":0},{"dx":0,"dy":0},{"dx":0,"dy":0},{"dx":0,"dy":0},{"dx":0,"dy":0},{"dx":-9,"dy":-18},{"dx":-7,"dy":-18},{"dx":-4,"dy":-21},{"dx":2,"dy":-28},{"dx":7,"dy":-32},{"dx":11,"dy":-23},{"dx":32,"dy":-48},{"dx":30,"dy":-32},{"dx":35,"dy":-31},{"dx":41,"dy":-37},{"dx":15,"dy":-11},{"dx":8,"dy":-8},{"dx":4,"dy":-5},{"dx":3,"dy":-4},{"dx":0,"dy":0},{"dx":1,"dy":-2},{"dx":0,"dy":-1},{"dx":0,"dy":-1},{"dx":0,"dy":-1},{"dx":-5,"dy":0},{"dx":-11,"dy":5},{"dx":-22,"dy":13},{"dx":-18,"dy":14},{"dx":-19,"dy":21},{"dx":-38,"dy":46},{"dx":-20,"dy":36},{"dx":-10,"dy":30},{"dx":-3,"dy":31},{"dx":12,"dy":38},{"dx":19,"dy":28},{"dx":21,"dy":24},{"dx":51,"dy":42},{"dx":32,"dy":22},{"dx":36,"dy":17},{"dx":11,"dy":4},{"dx":10,"dy":1},{"dx":9,"dy":-2},{"dx":15,"dy":-11},{"dx":9,"dy":-10},{"dx":12,"dy":-14},{"dx":11,"dy":-10},{"dx":13,"dy":-20},{"dx":54,"dy":-43},{"dx":66,"dy":-43},{"dx":80,"dy":-36},{"dx":118,"dy":-48},{"dx":68,"dy":-28},{"dx":49,"dy":-16},{"dx":55,"dy":-15},{"dx":18,"dy":-6},{"dx":13,"dy":-4},{"dx":6,"dy":-2},{"dx":0,"dy":0},{"dx":1,"dy":-1},{"dx":0,"dy":0},{"dx":-3,"dy":0},{"dx":-6,"dy":3},{"dx":-7,"dy":6},{"dx":-11,"dy":16},{"dx":-6,"dy":13},{"dx":-7,"dy":38},{"dx":-3,"dy":37},{"dx":-1,"dy":44},{"dx":0,"dy":59},{"dx":0,"dy":30},{"dx":-1,"dy":14},{"dx":-4,"dy":20},{"dx":-8,"dy":13},{"dx":-12,"dy":13},{"dx":-11,"dy":12},{"dx":-16,"dy":19},{"dx":-6,"dy":10},{"dx":-3,"dy":6},{"dx":0,"dy":2},{"dx":-1,"dy":1},{"dx":-1,"dy":0},{"dx":-19,"dy":-16},{"dx":-22,"dy":-21},{"dx":-47,"dy":-43},{"dx":-34,"dy":-18},{"dx":-38,"dy":-9},{"dx":-29,"dy":-2},{"dx":-6,"dy":0},{"dx":-4,"dy":0},{"dx":3,"dy":11},{"dx":21,"dy":14},{"dx":25,"dy":15},{"dx":31,"dy":13},{"dx":29,"dy":13},{"dx":11,"dy":4},{"dx":5,"dy":2},{"dx":1,"dy":0},{"dx":1,"dy":0},{"dx":1,"dy":0},{"dx":-15,"dy":-23},{"dx":-27,"dy":-29},{"dx":-56,"dy":-33},{"dx":-50,"dy":-10},{"dx":-54,"dy":-3},{"dx":-86,"dy":0},{"dx":-48,"dy":1},{"dx":-39,"dy":5},{"dx":-50,"dy":20},{"dx":-29,"dy":27},{"dx":-20,"dy":31},{"dx":-12,"dy":53},{"dx":1,"dy":33},{"dx":5,"dy":26},{"dx":8,"dy":19},{"dx":14,"dy":27},{"dx":12,"dy":16},{"dx":14,"dy":10},{"dx":20,"dy":7},{"dx":19,"dy":0},{"dx":16,"dy":-4},{"dx":21,"dy":-12},{"dx":9,"dy":-9},{"dx":7,"dy":-9},{"dx":3,"dy":-9},{"dx":-6,"dy":-21},{"dx":-12,"dy":-18},{"dx":-55,"dy":-34},{"dx":-61,"dy":-24},{"dx":-57,"dy":-23},{"dx":-60,"dy":-22},{"dx":-30,"dy":-8},{"dx":-20,"dy":-4},{"dx":-20,"dy":-3},{"dx":-10,"dy":-1},{"dx":-7,"dy":-2},{"dx":-16,"dy":-4},{"dx":-11,"dy":-5},{"dx":-10,"dy":-5},{"dx":-14,"dy":-8},{"dx":-11,"dy":-7},{"dx":-14,"dy":-11},{"dx":-28,"dy":-48},{"dx":-9,"dy":-40},{"dx":-4,"dy":-42},{"dx":-1,"dy":-34},{"dx":0,"dy":-7},{"dx":0,"dy":-7},{"dx":2,"dy":-4},{"dx":0,"dy":0},{"dx":1,"dy":-2},{"dx":0,"dy":0},{"dx":0,"dy":0},{"dx":0,"dy":0},{"dx":0,"dy":0},{"dx":0,"dy":0},{"dx":0,"dy":0},{"dx":0,"dy":0},{"dx":0,"dy":0},{"dx":0,"dy":0},{"dx":0,"dy":0},{"dx":0,"dy":0},{"dx":0,"dy":0},{"dx":0,"dy":0},{"dx":-6,"dy":-7},{"dx":-24,"dy":-18},{"dx":-62,"dy":-33},{"dx":-51,"dy":-28},{"dx":-39,"dy":-21},{"dx":-44,"dy":-22},{"dx":-20,"dy":-13},{"dx":-14,"dy":-12},{"dx":-15,"dy":-14},{"dx":-5,"dy":-5},{"dx":-1,"dy":0},{"dx":-4,"dy":-8},{"dx":0,"dy":-11},{"dx":0,"dy":-16},{"dx":7,"dy":-29},{"dx":5,"dy":-17},{"dx":5,"dy":-13},{"dx":5,"dy":-15},{"dx":2,"dy":-6},{"dx":1,"dy":-5},{"dx":0,"dy":-6},{"dx":0,"dy":-1},{"dx":-4,"dy":-2},{"dx":-23,"dy":7},{"dx":-21,"dy":12},{"dx":-20,"dy":19},{"dx":-23,"dy":31},{"dx":-10,"dy":23},{"dx":-9,"dy":24},{"dx":-9,"dy":30},{"dx":-3,"dy":23},{"dx":0,"dy":25},{"dx":10,"dy":44},{"dx":15,"dy":28},{"dx":22,"dy":25},{"dx":50,"dy":29},{"dx":33,"dy":12},{"dx":36,"dy":6},{"dx":42,"dy":-5},{"dx":16,"dy":-5},{"dx":5,"dy":-4},{"dx":9,"dy":-11},{"dx":1,"dy":-20},{"dx":-5,"dy":-30},{"dx":-24,"dy":-60},{"dx":-21,"dy":-34},{"dx":-28,"dy":-29},{"dx":-49,"dy":-38},{"dx":-26,"dy":-12},{"dx":-19,"dy":-5},{"dx":-17,"dy":-2},{"dx":-8,"dy":0},{"dx":-10,"dy":5},{"dx":-19,"dy":18},{"dx":-12,"dy":20},{"dx":-8,"dy":19},{"dx":-7,"dy":22},{"dx":-5,"dy":22},{"dx":-4,"dy":16},{"dx":-2,"dy":20},{"dx":-1,"dy":35},{"dx":4,"dy":28},{"dx":11,"dy":24},{"dx":20,"dy":32},{"dx":11,"dy":13},{"dx":12,"dy":9},{"dx":20,"dy":10},{"dx":16,"dy":4},{"dx":26,"dy":2},{"dx":43,"dy":-3},{"dx":31,"dy":-7},{"dx":33,"dy":-11},{"dx":42,"dy":-21},{"dx":34,"dy":-15},{"dx":27,"dy":-10},{"dx":50,"dy":-17},{"dx":26,"dy":-13},{"dx":24,"dy":-12},{"dx":20,"dy":-13},{"dx":9,"dy":-6},{"dx":14,"dy":-4},{"dx":26,"dy":-6},{"dx":30,"dy":-5},{"dx":27,"dy":-3},{"dx":68,"dy":-1},{"dx":52,"dy":8},{"dx":69,"dy":26},{"dx":44,"dy":27},{"dx":43,"dy":25},{"dx":43,"dy":31},{"dx":55,"dy":43},{"dx":32,"dy":25},{"dx":26,"dy":23},{"dx":17,"dy":19},{"dx":5,"dy":6},{"dx":0,"dy":1},{"dx":-2,"dy":12},{"dx":-10,"dy":4},{"dx":-34,"dy":3},{"dx":-43,"dy":-1},{"dx":-57,"dy":-9},{"dx":-64,"dy":-13},{"dx":-87,"dy":-30},{"dx":-52,"dy":-24},{"dx":-41,"dy":-13},{"dx":-48,"dy":-11},{"dx":-27,"dy":0},{"dx":-21,"dy":1},{"dx":-26,"dy":6},{"dx":-12,"dy":5},{"dx":-10,"dy":9},{"dx":-17,"dy":26},{"dx":-10,"dy":33},{"dx":-2,"dy":32},{"dx":15,"dy":49},{"dx":13,"dy":21},{"dx":11,"dy":11},{"dx":22,"dy":8},{"dx":27,"dy":2},{"dx":28,"dy":-2},{"dx":53,"dy":-12},{"dx":26,"dy":-13},{"dx":24,"dy":-17},{"dx":21,"dy":-21},{"dx":11,"dy":-15},{"dx":4,"dy":-13},{"dx":-2,"dy":-13},{"dx":-18,"dy":-5},{"dx":-29,"dy":-2},{"dx":-59,"dy":1},{"dx":-44,"dy":7},{"dx":-40,"dy":15},{"dx":-41,"dy":21},{"dx":-12,"dy":12},{"dx":-10,"dy":13},{"dx":-8,"dy":17},{"dx":-2,"dy":9},{"dx":2,"dy":9},{"dx":10,"dy":11},{"dx":11,"dy":4},{"dx":13,"dy":2},{"dx":21,"dy":1},{"dx":21,"dy":0},{"dx":20,"dy":0},{"dx":41,"dy":0},{"dx":23,"dy":0},{"dx":11,"dy":0},{"dx":28,"dy":0},{"dx":0,"dy":0},{"dx":0,"dy":0},{"dx":0,"dy":0},{"dx":0,"dy":0},{"dx":0,"dy":0},{"dx":0,"dy":0},{"dx":0,"dy":0},{"dx":0,"dy":0},{"dx":0,"dy":0},{"dx":0,"dy":0},{"dx":0,"dy":0},{"dx":0,"dy":0},{"dx":0,"dy":0},{"dx":0,"dy":0},{"dx":0,"dy":0},{"dx":0,"dy":0},{"dx":1,"dy":7},{"dx":12,"dy":29},{"dx":20,"dy":28},{"dx":27,"dy":28},{"dx":53,"dy":54},{"dx":30,"dy":32},{"dx":39,"dy":39},{"dx":52,"dy":47},{"dx":36,"dy":22},{"dx":20,"dy":9},{"dx":25,"dy":3},{"dx":20,"dy":-6},{"dx":30,"dy":-12},{"dx":60,"dy":-29},{"dx":41,"dy":-20},{"dx":27,"dy":-16},{"dx":43,"dy":-26},{"dx":39,"dy":-24},{"dx":35,"dy":-19},{"dx":46,"dy":-20},{"dx":20,"dy":-9},{"dx":12,"dy":-5},{"dx":17,"dy":-6},{"dx":5,"dy":-3},{"dx":5,"dy":-4},{"dx":9,"dy":-10},{"dx":4,"dy":-5},{"dx":0,"dy":-1},{"dx":2,"dy":-5},{"dx":0,"dy":-1},{"dx":0,"dy":-1},{"dx":0,"dy":0},{"dx":-5,"dy":-3},{"dx":-14,"dy":-4},{"dx":-21,"dy":-4},{"dx":-12,"dy":-2},{"dx":-7,"dy":-1},{"dx":-4,"dy":0},{"dx":-1,"dy":0},{"dx":-2,"dy":0},{"dx":0,"dy":0},{"dx":5,"dy":12}],"trial_type":"plugin-moving-dots-2","trial_index":4,"plugin_version":"0.0.1","time_elapsed":31211},{"task":"fixation","rt":3141,"stimulus":"<div style=\"font-size:60px;\">+</div>","response":" ","trial_type":"html-keyboard-response","trial_index":5,"plugin_version":"2.1.0","time_elapsed":34355},{"task":"movingdots","control_change":0,"mouse_data":[{"dx":0,"dy":0},{"dx":0,"dy":0},{"dx":0,"dy":0},{"dx":0,"dy":0},{"dx":0,"dy":0},{"dx":0,"dy":0},{"dx":0,"dy":0},{"dx":0,"dy":0},{"dx":0,"dy":0},{"dx":0,"dy":0},{"dx":0,"dy":0},{"dx":0,"dy":0},{"dx":0,"dy":0},{"dx":0,"dy":0},{"dx":0,"dy":0},{"dx":0,"dy":0},{"dx":0,"dy":0},{"dx":0,"dy":0},{"dx":0,"dy":0},{"dx":0,"dy":0},{"dx":0,"dy":0},{"dx":0,"dy":0},{"dx":0,"dy":0},{"dx":0,"dy":0},{"dx":0,"dy":0},{"dx":0,"dy":0},{"dx":0,"dy":0},{"dx":0,"dy":0},{"dx":7,"dy":-7},{"dx":36,"dy":-33},{"dx":22,"dy":-18},{"dx":25,"dy":-16},{"dx":51,"dy":-26},{"dx":40,"dy":-18},{"dx":43,"dy":-22},{"dx":45,"dy":-20},{"dx":38,"dy":-8},{"dx":29,"dy":-3},{"dx":45,"dy":2},{"dx":29,"dy":5},{"dx":19,"dy":1},{"dx":40,"dy":5},{"dx":26,"dy":0},{"dx":29,"dy":2},{"dx":32,"dy":-1},{"dx":26,"dy":-4},{"dx":20,"dy":-7},{"dx":22,"dy":-10},{"dx":5,"dy":-3},{"dx":4,"dy":-2},{"dx":-15,"dy":-3},{"dx":0,"dy":0},{"dx":-11,"dy":0},{"dx":0,"dy":0},{"dx":0,"dy":0},{"dx":0,"dy":0},{"dx":0,"dy":0},{"dx":0,"dy":0},{"dx":0,"dy":0},{"dx":0,"dy":0},{"dx":0,"dy":0},{"dx":0,"dy":0},{"dx":0,"dy":0},{"dx":0,"dy":0},{"dx":0,"dy":0},{"dx":43,"dy":-21},{"dx":52,"dy":-28},{"dx":40,"dy":-19},{"dx":38,"dy":-16},{"dx":13,"dy":-6},{"dx":9,"dy":-5},{"dx":14,"dy":-14},{"dx":7,"dy":-10},{"dx":2,"dy":-6},{"dx":2,"dy":-18},{"dx":-4,"dy":-11},{"dx":-10,"dy":-12},{"dx":-35,"dy":-28},{"dx":-41,"dy":-30},{"dx":-40,"dy":-26},{"dx":-53,"dy":-26},{"dx":-29,"dy":-10},{"dx":-25,"dy":-10},{"dx":-53,"dy":-18},{"dx":-36,"dy":-10},{"dx":-26,"dy":-4},{"dx":-34,"dy":-4},{"dx":-17,"dy":1},{"dx":-18,"dy":4},{"dx":-28,"dy":13},{"dx":-12,"dy":9},{"dx":-11,"dy":12},{"dx":-13,"dy":22},{"dx":-12,"dy":41},{"dx":-5,"dy":36},{"dx":0,"dy":33},{"dx":1,"dy":48},{"dx":5,"dy":27},{"dx":4,"dy":21},{"dx":9,"dy":24},{"dx":10,"dy":14},{"dx":13,"dy":15},{"dx":23,"dy":19},{"dx":16,"dy":7},{"dx":20,"dy":7},{"dx":22,"dy":6},{"dx":18,"dy":4},{"dx":19,"dy":4},{"dx":6,"dy":1},{"dx":7,"dy":0},{"dx":14,"dy":-3},{"dx":9,"dy":-6},{"dx":8,"dy":-9},{"dx":11,"dy":-12},{"dx":12,"dy":-20},{"dx":8,"dy":-17},{"dx":6,"dy":-20},{"dx":5,"dy":-27},{"dx":0,"dy":-22},{"dx":-3,"dy":-16},{"dx":-13,"dy":-20},{"dx":-15,"dy":-13},{"dx":-22,"dy":-9},{"dx":-27,"dy":1},{"dx":-23,"dy":12},{"dx":-21,"dy":18},{"dx":-33,"dy":53},{"dx":-16,"dy":45},{"dx":-8,"dy":43},{"dx":2,"dy":61},{"dx":8,"dy":32},{"dx":10,"dy":29},{"dx":23,"dy":32},{"dx":27,"dy":20},{"dx":33,"dy":19},{"dx":49,"dy":20},{"dx":33,"dy":5},{"dx":35,"dy":-2},{"dx":79,"dy":-23},{"dx":47,"dy":-15},{"dx":37,"dy":-10},{"dx":36,"dy":-6},{"dx":12,"dy":-2},{"dx":5,"dy":-1},{"dx":1,"dy":0},{"dx":1,"dy":-1},{"dx":1,"dy":0},{"dx":0,"dy":0},{"dx":0,"dy":0},{"dx":0,"dy":0},{"dx":21,"dy":-7},{"dx":10,"dy":-2},{"dx":11,"dy":-1},{"dx":16,"dy":6},{"dx":9,"dy":10},{"dx":7,"dy":11},{"dx":4,"dy":9},{"dx":5,"dy":7},{"dx":3,"dy":5},{"dx":2,"dy":12},{"dx":-2,"dy":9},{"dx":-7,"dy":9},{"dx":-18,"dy":15},{"dx":-25,"dy":10},{"dx":-31,"dy":11},{"dx":-31,"dy":14},{"dx":-18,"dy":6},{"dx":-16,"dy":6},{"dx":-23,"dy":10},{"dx":-22,"dy":7},{"dx":-14,"dy":4},{"dx":-22,"dy":4},{"dx":-17,"dy":0},{"dx":-17,"dy":-4},{"dx":-39,"dy":-26},{"dx":-27,"dy":-20},{"dx":-34,"dy":-22},{"dx":-42,"dy":-28},{"dx":-26,"dy":-12},{"dx":-26,"dy":-9},{"dx":-42,"dy":-16},{"dx":-21,"dy":-9},{"dx":-17,"dy":-6},{"dx":-17,"dy":1},{"dx":-12,"dy":8},{"dx":-11,"dy":16},{"dx":-13,"dy":26},{"dx":-4,"dy":15},{"dx":-1,"dy":12},{"dx":0,"dy":10},{"dx":0,"dy":6},{"dx":1,"dy":6},{"dx":5,"dy":9},{"dx":5,"dy":3},{"dx":7,"dy":1},{"dx":18,"dy":-3},{"dx":10,"dy":-6},{"dx":10,"dy":-6},{"dx":16,"dy":-13},{"dx":14,"dy":-9},{"dx":13,"dy":-11},{"dx":32,"dy":-21},{"dx":15,"dy":-9},{"dx":9,"dy":-5},{"dx":6,"dy":-2},{"dx":7,"dy":1},{"dx":4,"dy":5},{"dx":8,"dy":13},{"dx":2,"dy":5},{"dx":1,"dy":5},{"dx":0,"dy":6},{"dx":0,"dy":6},{"dx":0,"dy":0},{"dx":0,"dy":0},{"dx":0,"dy":-1},{"dx":0,"dy":0},{"dx":0,"dy":0},{"dx":0,"dy":0},{"dx":0,"dy":0},{"dx":0,"dy":0},{"dx":0,"dy":0},{"dx":0,"dy":0},{"dx":0,"dy":0},{"dx":0,"dy":0},{"dx":0,"dy":0},{"dx":0,"dy":0},{"dx":0,"dy":0},{"dx":-13,"dy":15},{"dx":-36,"dy":50},{"dx":-26,"dy":45},{"dx":-17,"dy":39},{"dx":-10,"dy":41},{"dx":0,"dy":22},{"dx":7,"dy":21},{"dx":18,"dy":21},{"dx":22,"dy":12},{"dx":20,"dy":9},{"dx":34,"dy":10},{"dx":20,"dy":5},{"dx":22,"dy":4},{"dx":26,"dy":9},{"dx":17,"dy":7},{"dx":15,"dy":5},{"dx":11,"dy":4},{"dx":8,"dy":1},{"dx":12,"dy":-1},{"dx":15,"dy":-2},{"dx":19,"dy":2},{"dx":14,"dy":11},{"dx":17,"dy":22},{"dx":12,"dy":23},{"dx":4,"dy":11},{"dx":3,"dy":10},{"dx":2,"dy":7},{"dx":0,"dy":6},{"dx":-1,"dy":6},{"dx":-14,"dy":13},{"dx":-14,"dy":4},{"dx":-14,"dy":2},{"dx":-27,"dy":0},{"dx":-18,"dy":1},{"dx":-21,"dy":1},{"dx":-52,"dy":1},{"dx":-42,"dy":-6},{"dx":-43,"dy":-7},{"dx":-46,"dy":-15},{"dx":-31,"dy":-16},{"dx":-43,"dy":-25},{"dx":-61,"dy":-39},{"dx":-33,"dy":-28},{"dx":-21,"dy":-16},{"dx":-21,"dy":-12},{"dx":-16,"dy":-7},{"dx":-23,"dy":-13},{"dx":-31,"dy":-26},{"dx":-15,"dy":-13},{"dx":-19,"dy":-15},{"dx":-36,"dy":-31},{"dx":-28,"dy":-19},{"dx":-29,"dy":-17},{"dx":-47,"dy":-24},{"dx":-32,"dy":-15},{"dx":-31,"dy":-9},{"dx":-28,"dy":-8},{"dx":-5,"dy":0},{"dx":-6,"dy":0},{"dx":-4,"dy":2},{"dx":-2,"dy":6},{"dx":-2,"dy":7},{"dx":-2,"dy":19},{"dx":0,"dy":14},{"dx":0,"dy":12},{"dx":1,"dy":12},{"dx":0,"dy":10},{"dx":2,"dy":8},{"dx":4,"dy":19},{"dx":6,"dy":11},{"dx":9,"dy":12},{"dx":15,"dy":14},{"dx":10,"dy":6},{"dx":6,"dy":2},{"dx":6,"dy":0},{"dx":5,"dy":-2},{"dx":3,"dy":-3},{"dx":8,"dy":-11},{"dx":8,"dy":-10},{"dx":15,"dy":-23},{"dx":27,"dy":-39},{"dx":9,"dy":-27},{"dx":2,"dy":-17},{"dx":-4,"dy":-19},{"dx":-9,"dy":-15},{"dx":-24,"dy":-20},{"dx":-68,"dy":-28},{"dx":-37,"dy":-9},{"dx":-16,"dy":-3},{"dx":-12,"dy":1},{"dx":-4,"dy":3},{"dx":-3,"dy":5},{"dx":-1,"dy":5},{"dx":0,"dy":5},{"dx":2,"dy":5},{"dx":0,"dy":1},{"dx":0,"dy":0},{"dx":0,"dy":0},{"dx":0,"dy":0},{"dx":0,"dy":0},{"dx":0,"dy":0},{"dx":0,"dy":0},{"dx":0,"dy":0},{"dx":0,"dy":0},{"dx":0,"dy":0},{"dx":0,"dy":0},{"dx":0,"dy":0},{"dx":0,"dy":0},{"dx":-22,"dy":-15},{"dx":-29,"dy":-18},{"dx":-33,"dy":-15},{"dx":-50,"dy":-23},{"dx":-35,"dy":-14},{"dx":-30,"dy":-9},{"dx":-27,"dy":-6},{"dx":-13,"dy":0},{"dx":-22,"dy":7},{"dx":-18,"dy":9},{"dx":-24,"dy":14},{"dx":-31,"dy":21},{"dx":-18,"dy":16},{"dx":-17,"dy":18},{"dx":-21,"dy":27},{"dx":-10,"dy":23},{"dx":-6,"dy":18},{"dx":-3,"dy":25},{"dx":-1,"dy":14},{"dx":0,"dy":7},{"dx":0,"dy":9},{"dx":0,"dy":14},{"dx":1,"dy":7},{"dx":2,"dy":4},{"dx":4,"dy":5},{"dx":15,"dy":4},{"dx":20,"dy":1},{"dx":47,"dy":-6},{"dx":27,"dy":-10},{"dx":19,"dy":-12},{"dx":15,"dy":-18},{"dx":7,"dy":-21},{"dx":4,"dy":-25},{"dx":2,"dy":-59},{"dx":-7,"dy":-50},{"dx":-19,"dy":-46},{"dx":-31,"dy":-62},{"dx":-20,"dy":-28},{"dx":-17,"dy":-19},{"dx":-19,"dy":-16},{"dx":-5,"dy":-3},{"dx":-5,"dy":-3},{"dx":-2,"dy":-1},{"dx":-1,"dy":-1},{"dx":0,"dy":0},{"dx":30,"dy":-14},{"dx":28,"dy":-13},{"dx":36,"dy":-18},{"dx":52,"dy":-20},{"dx":25,"dy":-7},{"dx":20,"dy":-1},{"dx":29,"dy":2},{"dx":16,"dy":2},{"dx":18,"dy":2},{"dx":21,"dy":0},{"dx":15,"dy":-2},{"dx":15,"dy":-2},{"dx":21,"dy":-4},{"dx":12,"dy":-2},{"dx":5,"dy":0},{"dx":6,"dy":0},{"dx":0,"dy":0},{"dx":-8,"dy":-12},{"dx":-20,"dy":-18},{"dx":-18,"dy":-16},{"dx":-22,"dy":-19},{"dx":-51,"dy":-34},{"dx":-27,"dy":-18},{"dx":-19,"dy":-13},{"dx":-15,"dy":-13},{"dx":-10,"dy":-8},{"dx":-12,"dy":-7},{"dx":-22,"dy":-5},{"dx":-19,"dy":1},{"dx":-15,"dy":5},{"dx":-18,"dy":10},{"dx":-13,"dy":11},{"dx":-14,"dy":21},{"dx":-23,"dy":47},{"dx":-13,"dy":38},{"dx":-8,"dy":33},{"dx":-6,"dy":42},{"dx":0,"dy":23},{"dx":3,"dy":23},{"dx":14,"dy":32},{"dx":18,"dy":24},{"dx":22,"dy":26},{"dx":44,"dy":32},{"dx":35,"dy":22},{"dx":35,"dy":18},{"dx":59,"dy":15},{"dx":42,"dy":3},{"dx":43,"dy":-1},{"dx":68,"dy":-11},{"dx":46,"dy":-15},{"dx":38,"dy":-16},{"dx":57,"dy":-28},{"dx":35,"dy":-24},{"dx":31,"dy":-29},{"dx":37,"dy":-57},{"dx":22,"dy":-55},{"dx":14,"dy":-53},{"dx":5,"dy":-75},{"dx":-2,"dy":-35},{"dx":-12,"dy":-40},{"dx":-42,"dy":-53},{"dx":-37,"dy":-33},{"dx":-34,"dy":-20},{"dx":-41,"dy":-19},{"dx":-29,"dy":-6},{"dx":-25,"dy":-3},{"dx":-41,"dy":4},{"dx":-31,"dy":13},{"dx":-26,"dy":17},{"dx":-33,"dy":33},{"dx":-20,"dy":28},{"dx":-21,"dy":37}],"trial_type":"plugin-moving-dots-2","trial_index":6,"plugin_version":"0.0.1","time_elapsed":41861},{"task":"fixation","rt":2461,"stimulus":"<div style=\"font-size:60px;\">+</div>","response":" ","trial_type":"html-keyboard-response","trial_index":7,"plugin_version":"2.1.0","time_elapsed":44324},{"task":"movingdots","control_change":0,"mouse_data":[{"dx":0,"dy":0},{"dx":0,"dy":0},{"dx":0,"dy":0},{"dx":0,"dy":0},{"dx":0,"dy":0},{"dx":0,"dy":0},{"dx":0,"dy":0},{"dx":0,"dy":0},{"dx":0,"dy":0},{"dx":0,"dy":0},{"dx":0,"dy":0},{"dx":0,"dy":0},{"dx":0,"dy":0},{"dx":0,"dy":0},{"dx":0,"dy":0},{"dx":0,"dy":0},{"dx":0,"dy":0},{"dx":0,"dy":0},{"dx":0,"dy":0},{"dx":0,"dy":0},{"dx":0,"dy":0},{"dx":0,"dy":0},{"dx":0,"dy":0},{"dx":0,"dy":0},{"dx":0,"dy":0},{"dx":0,"dy":0},{"dx":0,"dy":0},{"dx":0,"dy":0},{"dx":0,"dy":0},{"dx":0,"dy":0},{"dx":0,"dy":0},{"dx":0,"dy":0},{"dx":0,"dy":0},{"dx":0,"dy":0},{"dx":0,"dy":0},{"dx":0,"dy":0},{"dx":0,"dy":0},{"dx":0,"dy":0},{"dx":0,"dy":0},{"dx":0,"dy":0},{"dx":0,"dy":0},{"dx":0,"dy":0},{"dx":-5,"dy":0},{"dx":-19,"dy":-5},{"dx":-14,"dy":-5},{"dx":-21,"dy":-7},{"dx":-12,"dy":-5},{"dx":-15,"dy":-5},{"dx":-11,"dy":-3},{"dx":-5,"dy":-2},{"dx":-7,"dy":-2},{"dx":-8,"dy":-3},{"dx":-4,"dy":-4},{"dx":-5,"dy":-5},{"dx":-11,"dy":-14},{"dx":-9,"dy":-10},{"dx":-8,"dy":-12},{"dx":-15,"dy":-20},{"dx":-12,"dy":-16},{"dx":-17,"dy":-23},{"dx":-18,"dy":-28},{"dx":-10,"dy":-12},{"dx":-7,"dy":-10},{"dx":-17,"dy":-8},{"dx":-13,"dy":-3},{"dx":-17,"dy":0},{"dx":-31,"dy":2},{"dx":-17,"dy":3},{"dx":-15,"dy":6},{"dx":-15,"dy":13},{"dx":-7,"dy":11},{"dx":-4,"dy":13},{"dx":-3,"dy":16},{"dx":-1,"dy":13},{"dx":0,"dy":15},{"dx":0,"dy":24},{"dx":3,"dy":21},{"dx":4,"dy":16},{"dx":13,"dy":20},{"dx":10,"dy":11},{"dx":9,"dy":7},{"dx":15,"dy":9},{"dx":14,"dy":2},{"dx":14,"dy":1},{"dx":39,"dy":-7},{"dx":32,"dy":-10},{"dx":32,"dy":-14},{"dx":35,"dy":-19},{"dx":22,"dy":-18},{"dx":15,"dy":-13},{"dx":15,"dy":-19},{"dx":12,"dy":-33},{"dx":9,"dy":-37},{"dx":10,"dy":-63},{"dx":6,"dy":-31},{"dx":3,"dy":-25},{"dx":1,"dy":-28},{"dx":-6,"dy":-29},{"dx":-7,"dy":-20},{"dx":-7,"dy":-21},{"dx":-3,"dy":-11},{"dx":-1,"dy":-7},{"dx":10,"dy":-19},{"dx":18,"dy":-12},{"dx":28,"dy":-14},{"dx":43,"dy":-14},{"dx":33,"dy":-3},{"dx":25,"dy":0},{"dx":35,"dy":9},{"dx":14,"dy":7},{"dx":10,"dy":10},{"dx":13,"dy":22},{"dx":8,"dy":17},{"dx":13,"dy":21},{"dx":26,"dy":45},{"dx":20,"dy":31},{"dx":18,"dy":31},{"dx":19,"dy":30},{"dx":7,"dy":13},{"dx":9,"dy":12},{"dx":16,"dy":17},{"dx":9,"dy":9},{"dx":9,"dy":11},{"dx":14,"dy":17},{"dx":16,"dy":12},{"dx":13,"dy":7},{"dx":30,"dy":2},{"dx":29,"dy":-9},{"dx":33,"dy":-10},{"dx":39,"dy":-17},{"dx":22,"dy":-13},{"dx":11,"dy":-12},{"dx":13,"dy":-25},{"dx":1,"dy":-10},{"dx":-1,"dy":-7},{"dx":-16,"dy":-9},{"dx":-17,"dy":-2},{"dx":-20,"dy":0},{"dx":-14,"dy":5},{"dx":-8,"dy":7},{"dx":-6,"dy":9},{"dx":-2,"dy":7},{"dx":2,"dy":21},{"dx":8,"dy":14},{"dx":13,"dy":17},{"dx":24,"dy":23},{"dx":25,"dy":12},{"dx":16,"dy":9},{"dx":16,"dy":6},{"dx":5,"dy":2},{"dx":1,"dy":0},{"dx":0,"dy":0},{"dx":-3,"dy":1},{"dx":-16,"dy":3},{"dx":-24,"dy":7},{"dx":-13,"dy":7},{"dx":-13,"dy":11},{"dx":-16,"dy":21},{"dx":-5,"dy":12},{"dx":-1,"dy":15},{"dx":2,"dy":25},{"dx":4,"dy":15},{"dx":5,"dy":12},{"dx":5,"dy":11},{"dx":0,"dy":1},{"dx":2,"dy":4},{"dx":0,"dy":0},{"dx":-3,"dy":2},{"dx":-8,"dy":-3},{"dx":-23,"dy":-12},{"dx":-23,"dy":-10},{"dx":-24,"dy":-12},{"dx":-39,"dy":-15},{"dx":-23,"dy":-6},{"dx":-23,"dy":-5},{"dx":-26,"dy":-4},{"dx":-16,"dy":-1},{"dx":-14,"dy":0},{"dx":-21,"dy":4},{"dx":-13,"dy":3},{"dx":-7,"dy":1},{"dx":-13,"dy":3},{"dx":-8,"dy":0},{"dx":-12,"dy":-2},{"dx":-27,"dy":-10},{"dx":-26,"dy":-10},{"dx":-28,"dy":-14},{"dx":-50,"dy":-18},{"dx":-42,"dy":-4},{"dx":-41,"dy":-1},{"dx":-57,"dy":0},{"dx":-40,"dy":-2},{"dx":-30,"dy":-2},{"dx":-35,"dy":2},{"dx":-16,"dy":6},{"dx":-16,"dy":11},{"dx":-19,"dy":18},{"dx":-7,"dy":12},{"dx":-3,"dy":6},{"dx":-5,"dy":6},{"dx":-2,"dy":4},{"dx":-3,"dy":3},{"dx":-10,"dy":0},{"dx":-13,"dy":-3},{"dx":-15,"dy":-8},{"dx":-17,"dy":-16},{"dx":-9,"dy":-16},{"dx":-9,"dy":-30},{"dx":-4,"dy":-23},{"dx":-2,"dy":-35},{"dx":0,"dy":0},{"dx":0,"dy":0},{"dx":0,"dy":0},{"dx":0,"dy":0},{"dx":0,"dy":0},{"dx":0,"dy":0},{"dx":0,"dy":0},{"dx":0,"dy":0},{"dx":0,"dy":0},{"dx":0,"dy":0},{"dx":0,"dy":0},{"dx":0,"dy":0},{"dx":0,"dy":0},{"dx":0,"dy":0},{"dx":0,"dy":0},{"dx":0,"dy":0},{"dx":0,"dy":0},{"dx":0,"dy":0},{"dx":0,"dy":0},{"dx":0,"dy":0},{"dx":0,"dy":0},{"dx":0,"dy":0},{"dx":0,"dy":0},{"dx":0,"dy":0},{"dx":0,"dy":0},{"dx":0,"dy":0},{"dx":0,"dy":0},{"dx":0,"dy":0},{"dx":0,"dy":0},{"dx":0,"dy":0},{"dx":0,"dy":0},{"dx":0,"dy":0},{"dx":0,"dy":0},{"dx":0,"dy":0},{"dx":-17,"dy":-10},{"dx":-12,"dy":-14},{"dx":-21,"dy":-24},{"dx":-36,"dy":-55},{"dx":-16,"dy":-35},{"dx":-12,"dy":-37},{"dx":-12,"dy":-50},{"dx":-6,"dy":-24},{"dx":-4,"dy":-14},{"dx":-3,"dy":-13},{"dx":-1,"dy":-1},{"dx":0,"dy":-2},{"dx":0,"dy":-1},{"dx":0,"dy":-1},{"dx":4,"dy":2},{"dx":3,"dy":6},{"dx":1,"dy":7},{"dx":-4,"dy":13},{"dx":-16,"dy":20},{"dx":-26,"dy":24},{"dx":-31,"dy":31},{"dx":-41,"dy":46},{"dx":-17,"dy":22},{"dx":-8,"dy":15},{"dx":-2,"dy":18},{"dx":4,"dy":14},{"dx":13,"dy":28},{"dx":43,"dy":52},{"dx":36,"dy":30},{"dx":36,"dy":21},{"dx":41,"dy":17},{"dx":20,"dy":4},{"dx":15,"dy":1},{"dx":32,"dy":-1},{"dx":31,"dy":-6},{"dx":35,"dy":-7},{"dx":24,"dy":-7},{"dx":27,"dy":-17},{"dx":13,"dy":-15},{"dx":8,"dy":-25},{"dx":0,"dy":-59},{"dx":-11,"dy":-56},{"dx":-19,"dy":-46},{"dx":-38,"dy":-53},{"dx":-39,"dy":-24},{"dx":-53,"dy":-19},{"dx":-82,"dy":-13},{"dx":-47,"dy":4},{"dx":-28,"dy":7},{"dx":-18,"dy":13},{"dx":-9,"dy":17},{"dx":-8,"dy":28},{"dx":-2,"dy":56},{"dx":7,"dy":35},{"dx":17,"dy":39},{"dx":41,"dy":48},{"dx":36,"dy":32},{"dx":32,"dy":27},{"dx":58,"dy":37},{"dx":46,"dy":23},{"dx":59,"dy":21},{"dx":103,"dy":23},{"dx":67,"dy":14},{"dx":61,"dy":9},{"dx":95,"dy":7},{"dx":65,"dy":0},{"dx":63,"dy":-6},{"dx":86,"dy":-15},{"dx":35,"dy":-14},{"dx":22,"dy":-16},{"dx":16,"dy":-23},{"dx":2,"dy":-18},{"dx":0,"dy":-20},{"dx":-6,"dy":-36},{"dx":-9,"dy":-39},{"dx":-15,"dy":-47},{"dx":-26,"dy":-71},{"dx":-13,"dy":-35},{"dx":-7,"dy":-21},{"dx":-5,"dy":-12},{"dx":-4,"dy":-5},{"dx":-4,"dy":-2},{"dx":-5,"dy":-1},{"dx":-6,"dy":0},{"dx":-7,"dy":4},{"dx":-10,"dy":12},{"dx":-3,"dy":9},{"dx":-1,"dy":8},{"dx":0,"dy":17},{"dx":5,"dy":14},{"dx":11,"dy":22},{"dx":39,"dy":47},{"dx":32,"dy":34},{"dx":30,"dy":29},{"dx":38,"dy":38},{"dx":14,"dy":17},{"dx":7,"dy":12},{"dx":4,"dy":22},{"dx":-14,"dy":23},{"dx":-28,"dy":27},{"dx":-56,"dy":38},{"dx":-30,"dy":14},{"dx":-21,"dy":5},{"dx":-23,"dy":-1},{"dx":-14,"dy":-5},{"dx":-15,"dy":-3},{"dx":-13,"dy":-1},{"dx":-6,"dy":2},{"dx":-2,"dy":6},{"dx":7,"dy":5},{"dx":12,"dy":0},{"dx":26,"dy":-17},{"dx":61,"dy":-48},{"dx":47,"dy":-44},{"dx":35,"dy":-36},{"dx":31,"dy":-56},{"dx":5,"dy":-22},{"dx":-2,"dy":-17},{"dx":-39,"dy":-31},{"dx":-55,"dy":-16},{"dx":-60,"dy":-7},{"dx":-100,"dy":1},{"dx":-44,"dy":5},{"dx":-17,"dy":5},{"dx":-4,"dy":6},{"dx":4,"dy":19},{"dx":29,"dy":37},{"dx":51,"dy":67},{"dx":41,"dy":54},{"dx":45,"dy":59},{"dx":63,"dy":78},{"dx":37,"dy":42},{"dx":21,"dy":29},{"dx":14,"dy":16},{"dx":12,"dy":16},{"dx":3,"dy":5},{"dx":3,"dy":5},{"dx":1,"dy":6},{"dx":-2,"dy":3},{"dx":-8,"dy":1},{"dx":-18,"dy":1},{"dx":-11,"dy":0},{"dx":-5,"dy":0},{"dx":-11,"dy":-2},{"dx":-1,"dy":0},{"dx":0,"dy":0},{"dx":1,"dy":4},{"dx":10,"dy":9},{"dx":20,"dy":16},{"dx":17,"dy":10},{"dx":19,"dy":7},{"dx":20,"dy":4},{"dx":14,"dy":0},{"dx":5,"dy":0},{"dx":4,"dy":0},{"dx":1,"dy":0},{"dx":0,"dy":0},{"dx":-9,"dy":-1},{"dx":-64,"dy":-6},{"dx":-54,"dy":-4},{"dx":-66,"dy":-3},{"dx":-29,"dy":-2},{"dx":-28,"dy":0},{"dx":-22,"dy":2},{"dx":-32,"dy":7},{"dx":-19,"dy":6},{"dx":-26,"dy":6},{"dx":-23,"dy":3},{"dx":-34,"dy":2},{"dx":-62,"dy":2},{"dx":-38,"dy":0},{"dx":-33,"dy":-2},{"dx":-30,"dy":-4},{"dx":-47,"dy":-19},{"dx":-42,"dy":-27},{"dx":-43,"dy":-32},{"dx":-56,"dy":-49},{"dx":-21,"dy":-20},{"dx":-17,"dy":-15},{"dx":-5,"dy":-5},{"dx":-1,"dy":-1},{"dx":-1,"dy":-1},{"dx":-1,"dy":-1},{"dx":0,"dy":0},{"dx":0,"dy":0},{"dx":15,"dy":1},{"dx":13,"dy":5},{"dx":30,"dy":15},{"dx":29,"dy":19},{"dx":31,"dy":19},{"dx":33,"dy":23},{"dx":53,"dy":36},{"dx":32,"dy":22},{"dx":29,"dy":17},{"dx":32,"dy":17},{"dx":14,"dy":6},{"dx":13,"dy":3},{"dx":11,"dy":3},{"dx":4,"dy":0},{"dx":2,"dy":0},{"dx":1,"dy":0},{"dx":2,"dy":-5},{"dx":0,"dy":-12},{"dx":0,"dy":-34},{"dx":-2,"dy":-25},{"dx":-1,"dy":-37},{"dx":-3,"dy":-40},{"dx":-3,"dy":-37}],"trial_type":"plugin-moving-dots-2","trial_index":8,"plugin_version":"0.0.1","time_elapsed":51828},{"task":"fixation","rt":2270,"stimulus":"<div style=\"font-size:60px;\">+</div>","response":" ","trial_type":"html-keyboard-response","trial_index":9,"plugin_version":"2.1.0","time_elapsed":54099},{"task":"movingdots","control_change":0,"mouse_data":[{"dx":0,"dy":0},{"dx":0,"dy":0},{"dx":0,"dy":0},{"dx":0,"dy":0},{"dx":0,"dy":0},{"dx":0,"dy":0},{"dx":0,"dy":0},{"dx":0,"dy":0},{"dx":0,"dy":0},{"dx":0,"dy":0},{"dx":0,"dy":0},{"dx":0,"dy":0},{"dx":0,"dy":0},{"dx":0,"dy":0},{"dx":0,"dy":0},{"dx":0,"dy":0},{"dx":0,"dy":0},{"dx":0,"dy":0},{"dx":0,"dy":0},{"dx":0,"dy":0},{"dx":0,"dy":0},{"dx":0,"dy":0},{"dx":0,"dy":0},{"dx":0,"dy":0},{"dx":0,"dy":0},{"dx":0,"dy":0},{"dx":0,"dy":0},{"dx":0,"dy":0},{"dx":0,"dy":0},{"dx":0,"dy":0},{"dx":0,"dy":0},{"dx":0,"dy":0},{"dx":19,"dy":-4},{"dx":22,"dy":-12},{"dx":31,"dy":-15},{"dx":50,"dy":-18},{"dx":31,"dy":-9},{"dx":22,"dy":-8},{"dx":25,"dy":-9},{"dx":34,"dy":-18},{"dx":25,"dy":-11},{"dx":25,"dy":-9},{"dx":14,"dy":-5},{"dx":15,"dy":-4},{"dx":14,"dy":-6},{"dx":29,"dy":-12},{"dx":15,"dy":-8},{"dx":11,"dy":-9},{"dx":15,"dy":-11},{"dx":12,"dy":-8},{"dx":9,"dy":-11},{"dx":14,"dy":-21},{"dx":6,"dy":-15},{"dx":1,"dy":-14},{"dx":-1,"dy":-27},{"dx":-2,"dy":-20},{"dx":-2,"dy":-19},{"dx":-1,"dy":-22},{"dx":-1,"dy":-6},{"dx":-4,"dy":-15},{"dx":-10,"dy":-16},{"dx":-8,"dy":-11},{"dx":-8,"dy":-8},{"dx":-15,"dy":-9},{"dx":-14,"dy":-6},{"dx":-10,"dy":-4},{"dx":-18,"dy":-4},{"dx":-12,"dy":-1},{"dx":-6,"dy":-1},{"dx":-14,"dy":1},{"dx":-7,"dy":3},{"dx":-4,"dy":2},{"dx":-1,"dy":0},{"dx":-1,"dy":2},{"dx":0,"dy":5},{"dx":9,"dy":12},{"dx":15,"dy":11},{"dx":24,"dy":15},{"dx":40,"dy":21},{"dx":19,"dy":9},{"dx":14,"dy":5},{"dx":19,"dy":4},{"dx":10,"dy":2},{"dx":12,"dy":3},{"dx":19,"dy":4},{"dx":1,"dy":0},{"dx":0,"dy":0},{"dx":1,"dy":1},{"dx":0,"dy":0},{"dx":0,"dy":0},{"dx":0,"dy":0},{"dx":0,"dy":0},{"dx":0,"dy":0},{"dx":0,"dy":0},{"dx":0,"dy":0},{"dx":0,"dy":0},{"dx":0,"dy":0},{"dx":0,"dy":0},{"dx":0,"dy":0},{"dx":0,"dy":0},{"dx":16,"dy":-5},{"dx":27,"dy":-16},{"dx":45,"dy":-31},{"dx":26,"dy":-18},{"dx":25,"dy":-17},{"dx":18,"dy":-15},{"dx":10,"dy":-7},{"dx":9,"dy":-9},{"dx":13,"dy":-11},{"dx":4,"dy":-4},{"dx":5,"dy":-6},{"dx":8,"dy":-8},{"dx":5,"dy":-2},{"dx":4,"dy":-2},{"dx":6,"dy":-1},{"dx":6,"dy":-1},{"dx":12,"dy":0},{"dx":21,"dy":0},{"dx":10,"dy":2},{"dx":11,"dy":4},{"dx":16,"dy":8},{"dx":9,"dy":7},{"dx":5,"dy":6},{"dx":5,"dy":7},{"dx":3,"dy":6},{"dx":2,"dy":6},{"dx":0,"dy":13},{"dx":-4,"dy":8},{"dx":-9,"dy":11},{"dx":-17,"dy":20},{"dx":-12,"dy":11},{"dx":-25,"dy":21},{"dx":-12,"dy":11},{"dx":-11,"dy":10},{"dx":-10,"dy":10},{"dx":-12,"dy":14},{"dx":-10,"dy":10},{"dx":-11,"dy":11},{"dx":-32,"dy":15},{"dx":-26,"dy":1},{"dx":-30,"dy":0},{"dx":-47,"dy":-9},{"dx":-35,"dy":-5},{"dx":-37,"dy":0},{"dx":-65,"dy":10},{"dx":-32,"dy":8},{"dx":-28,"dy":11},{"dx":-34,"dy":18},{"dx":-23,"dy":15},{"dx":-16,"dy":15},{"dx":-16,"dy":18},{"dx":-6,"dy":13},{"dx":-4,"dy":11},{"dx":-2,"dy":10},{"dx":0,"dy":5},{"dx":1,"dy":5},{"dx":7,"dy":7},{"dx":3,"dy":5},{"dx":3,"dy":4},{"dx":3,"dy":5},{"dx":0,"dy":0},{"dx":0,"dy":1},{"dx":-10,"dy":7},{"dx":-11,"dy":5},{"dx":-13,"dy":6},{"dx":-18,"dy":9},{"dx":-5,"dy":3},{"dx":-7,"dy":3},{"dx":-11,"dy":1},{"dx":-5,"dy":-1},{"dx":-3,"dy":-4},{"dx":-9,"dy":-22},{"dx":-6,"dy":-14},{"dx":-6,"dy":-10},{"dx":-9,"dy":-15},{"dx":-9,"dy":-12},{"dx":-10,"dy":-10},{"dx":-19,"dy":-16},{"dx":-11,"dy":-10},{"dx":-12,"dy":-11},{"dx":-14,"dy":-16},{"dx":-11,"dy":-10},{"dx":-10,"dy":-9},{"dx":-17,"dy":-15},{"dx":-10,"dy":-9},{"dx":-10,"dy":-9},{"dx":-15,"dy":-8},{"dx":-10,"dy":-2},{"dx":-12,"dy":0},{"dx":-10,"dy":0},{"dx":-7,"dy":2},{"dx":-5,"dy":3},{"dx":-6,"dy":9},{"dx":-2,"dy":5},{"dx":-2,"dy":5},{"dx":-3,"dy":8},{"dx":-2,"dy":7},{"dx":-2,"dy":8},{"dx":-4,"dy":21},{"dx":-1,"dy":13},{"dx":-2,"dy":14},{"dx":0,"dy":14},{"dx":0,"dy":1},{"dx":0,"dy":1},{"dx":0,"dy":1},{"dx":0,"dy":0},{"dx":5,"dy":0},{"dx":18,"dy":7},{"dx":24,"dy":14},{"dx":35,"dy":18},{"dx":52,"dy":24},{"dx":35,"dy":13},{"dx":35,"dy":9},{"dx":47,"dy":7},{"dx":37,"dy":3},{"dx":36,"dy":0},{"dx":57,"dy":-10},{"dx":41,"dy":-11},{"dx":31,"dy":-13},{"dx":41,"dy":-19},{"dx":17,"dy":-9},{"dx":17,"dy":-8},{"dx":16,"dy":-9},{"dx":4,"dy":-2},{"dx":0,"dy":0},{"dx":5,"dy":2},{"dx":0,"dy":9},{"dx":-3,"dy":14},{"dx":-13,"dy":32},{"dx":-18,"dy":41},{"dx":-23,"dy":43},{"dx":-26,"dy":35},{"dx":-9,"dy":7},{"dx":-7,"dy":3},{"dx":-6,"dy":1},{"dx":-11,"dy":1},{"dx":-10,"dy":0},{"dx":-9,"dy":0},{"dx":-6,"dy":0},{"dx":-4,"dy":0},{"dx":-6,"dy":0},{"dx":0,"dy":0},{"dx":-1,"dy":0},{"dx":0,"dy":0},{"dx":0,"dy":0},{"dx":0,"dy":0},{"dx":0,"dy":0},{"dx":4,"dy":-2},{"dx":3,"dy":-8},{"dx":1,"dy":-15},{"dx":1,"dy":-14},{"dx":1,"dy":-7},{"dx":0,"dy":-3},{"dx":0,"dy":0},{"dx":0,"dy":0},{"dx":-10,"dy":14},{"dx":-14,"dy":22},{"dx":-11,"dy":20},{"dx":-19,"dy":28},{"dx":-11,"dy":20},{"dx":-8,"dy":16},{"dx":-8,"dy":16},{"dx":-3,"dy":6},{"dx":-1,"dy":1},{"dx":-1,"dy":6},{"dx":0,"dy":1},{"dx":0,"dy":0},{"dx":3,"dy":9},{"dx":5,"dy":6},{"dx":5,"dy":6},{"dx":4,"dy":3},{"dx":0,"dy":1},{"dx":1,"dy":1},{"dx":1,"dy":1},{"dx":0,"dy":0},{"dx":-16,"dy":1},{"dx":-41,"dy":-7},{"dx":-36,"dy":-7},{"dx":-35,"dy":-2},{"dx":-52,"dy":-4},{"dx":-34,"dy":-4},{"dx":-27,"dy":-5},{"dx":-39,"dy":-6},{"dx":-25,"dy":-6},{"dx":-28,"dy":-7},{"dx":-44,"dy":-12},{"dx":-20,"dy":-9},{"dx":-16,"dy":-10},{"dx":-14,"dy":-15},{"dx":-7,"dy":-9},{"dx":-3,"dy":-5},{"dx":-5,"dy":-16},{"dx":-4,"dy":-11},{"dx":-2,"dy":-14},{"dx":-1,"dy":-18},{"dx":-2,"dy":-18},{"dx":0,"dy":-17},{"dx":0,"dy":-16},{"dx":0,"dy":-25},{"dx":0,"dy":-16},{"dx":0,"dy":-15},{"dx":0,"dy":-26},{"dx":0,"dy":-17},{"dx":2,"dy":-14},{"dx":6,"dy":-21},{"dx":8,"dy":-13},{"dx":20,"dy":-16},{"dx":47,"dy":-23},{"dx":33,"dy":-14},{"dx":38,"dy":-12},{"dx":42,"dy":-11},{"dx":25,"dy":-2},{"dx":14,"dy":-1},{"dx":18,"dy":5},{"dx":14,"dy":8},{"dx":12,"dy":11},{"dx":21,"dy":17},{"dx":21,"dy":15},{"dx":16,"dy":11},{"dx":17,"dy":12},{"dx":10,"dy":8},{"dx":11,"dy":8},{"dx":12,"dy":12},{"dx":6,"dy":8},{"dx":4,"dy":6},{"dx":3,"dy":4},{"dx":3,"dy":5},{"dx":0,"dy":7},{"dx":-14,"dy":14},{"dx":-19,"dy":17},{"dx":-19,"dy":14},{"dx":-31,"dy":16},{"dx":-16,"dy":7},{"dx":-16,"dy":7},{"dx":-22,"dy":7},{"dx":-10,"dy":4},{"dx":-5,"dy":2},{"dx":-10,"dy":4},{"dx":-1,"dy":1},{"dx":-3,"dy":2},{"dx":0,"dy":0},{"dx":0,"dy":1},{"dx":3,"dy":5},{"dx":10,"dy":10},{"dx":8,"dy":9},{"dx":8,"dy":7},{"dx":8,"dy":9},{"dx":6,"dy":6},{"dx":7,"dy":4},{"dx":21,"dy":5},{"dx":10,"dy":1},{"dx":13,"dy":0},{"dx":22,"dy":0},{"dx":14,"dy":-1},{"dx":14,"dy":-3},{"dx":20,"dy":-8},{"dx":12,"dy":-9},{"dx":8,"dy":-8},{"dx":5,"dy":-8},{"dx":4,"dy":-16},{"dx":2,"dy":-13},{"dx":0,"dy":-36},{"dx":-1,"dy":-37},{"dx":-3,"dy":-40},{"dx":-11,"dy":-51},{"dx":-10,"dy":-27},{"dx":-13,"dy":-19},{"dx":-15,"dy":-19},{"dx":-11,"dy":-8},{"dx":-13,"dy":-14},{"dx":-5,"dy":-7},{"dx":-2,"dy":-6},{"dx":0,"dy":0},{"dx":3,"dy":-11},{"dx":4,"dy":-5},{"dx":7,"dy":-7},{"dx":17,"dy":-21},{"dx":9,"dy":-11},{"dx":4,"dy":-5},{"dx":4,"dy":-12},{"dx":-4,"dy":-7},{"dx":-7,"dy":-8},{"dx":-17,"dy":-10},{"dx":-14,"dy":-4},{"dx":-15,"dy":-3},{"dx":-27,"dy":1},{"dx":-15,"dy":3},{"dx":-14,"dy":5},{"dx":-21,"dy":10},{"dx":-16,"dy":10},{"dx":-17,"dy":12},{"dx":-28,"dy":23},{"dx":-12,"dy":14},{"dx":-11,"dy":12},{"dx":-15,"dy":18},{"dx":-11,"dy":12},{"dx":-9,"dy":12},{"dx":-12,"dy":18},{"dx":-7,"dy":13},{"dx":-4,"dy":12},{"dx":-5,"dy":14},{"dx":-5,"dy":26},{"dx":-4,"dy":17},{"dx":-3,"dy":25},{"dx":0,"dy":15},{"dx":0,"dy":12},{"dx":1,"dy":12},{"dx":1,"dy":9},{"dx":0,"dy":8},{"dx":-1,"dy":15},{"dx":-2,"dy":5},{"dx":-2,"dy":6},{"dx":-2,"dy":6},{"dx":-3,"dy":12},{"dx":-2,"dy":14},{"dx":-4,"dy":23},{"dx":0,"dy":14},{"dx":0,"dy":8},{"dx":0,"dy":1},{"dx":0,"dy":4},{"dx":0,"dy":0},{"dx":0,"dy":0},{"dx":0,"dy":0},{"dx":0,"dy":0},{"dx":0,"dy":0},{"dx":0,"dy":0},{"dx":0,"dy":0},{"dx":0,"dy":0},{"dx":0,"dy":0},{"dx":0,"dy":0},{"dx":0,"dy":0},{"dx":0,"dy":0},{"dx":0,"dy":0},{"dx":-15,"dy":2},{"dx":-35,"dy":2},{"dx":-18,"dy":-1},{"dx":-18,"dy":-3},{"dx":-23,"dy":-4},{"dx":-12,"dy":-5},{"dx":-12,"dy":-5},{"dx":-9,"dy":-6},{"dx":-5,"dy":-4},{"dx":-3,"dy":-3},{"dx":-1,"dy":-12},{"dx":1,"dy":-11},{"dx":9,"dy":-22},{"dx":17,"dy":-43},{"dx":10,"dy":-20},{"dx":9,"dy":-17},{"dx":12,"dy":-18},{"dx":9,"dy":-10},{"dx":10,"dy":-11},{"dx":16,"dy":-17}],"trial_type":"plugin-moving-dots-2","trial_index":10,"plugin_version":"0.0.1","time_elapsed":61611},{"task":"fixation","rt":4743,"stimulus":"<div style=\"font-size:60px;\">+</div>","response":" ","trial_type":"html-keyboard-response","trial_index":11,"plugin_version":"2.1.0","time_elapsed":66357},{"task":"movingdots","control_change":0,"mouse_data":[{"dx":0,"dy":0},{"dx":0,"dy":0},{"dx":0,"dy":0},{"dx":0,"dy":0},{"dx":0,"dy":0},{"dx":0,"dy":0},{"dx":0,"dy":0},{"dx":0,"dy":0},{"dx":0,"dy":0},{"dx":0,"dy":0},{"dx":0,"dy":0},{"dx":0,"dy":0},{"dx":0,"dy":0},{"dx":0,"dy":0},{"dx":0,"dy":0},{"dx":0,"dy":0},{"dx":0,"dy":0},{"dx":0,"dy":0},{"dx":0,"dy":0},{"dx":0,"dy":0},{"dx":0,"dy":0},{"dx":0,"dy":0},{"dx":0,"dy":0},{"dx":0,"dy":0},{"dx":0,"dy":0},{"dx":0,"dy":0},{"dx":0,"dy":0},{"dx":0,"dy":0},{"dx":4,"dy":-1},{"dx":17,"dy":-6},{"dx":44,"dy":-11},{"dx":36,"dy":-5},{"dx":32,"dy":-2},{"dx":40,"dy":0},{"dx":17,"dy":2},{"dx":13,"dy":3},{"dx":13,"dy":3},{"dx":8,"dy":0},{"dx":5,"dy":0},{"dx":16,"dy":-2},{"dx":14,"dy":-1},{"dx":15,"dy":-4},{"dx":33,"dy":-6},{"dx":16,"dy":-4},{"dx":12,"dy":-3},{"dx":15,"dy":-5},{"dx":10,"dy":-3},{"dx":10,"dy":-4},{"dx":19,"dy":-8},{"dx":10,"dy":-4},{"dx":8,"dy":-4},{"dx":14,"dy":-7},{"dx":11,"dy":-5},{"dx":13,"dy":-6},{"dx":16,"dy":-9},{"dx":11,"dy":-6},{"dx":8,"dy":-6},{"dx":8,"dy":-9},{"dx":4,"dy":-5},{"dx":3,"dy":-6},{"dx":3,"dy":-8},{"dx":3,"dy":-14},{"dx":2,"dy":-12},{"dx":0,"dy":-12},{"dx":-2,"dy":-11},{"dx":-3,"dy":-15},{"dx":-7,"dy":-19},{"dx":-7,"dy":-12},{"dx":-8,"dy":-11},{"dx":-7,"dy":-9},{"dx":-3,"dy":-4},{"dx":-3,"dy":-4},{"dx":-4,"dy":-4},{"dx":-3,"dy":-4},{"dx":-4,"dy":-4},{"dx":-14,"dy":-7},{"dx":-8,"dy":-3},{"dx":-8,"dy":-3},{"dx":-7,"dy":-1},{"dx":-5,"dy":-1},{"dx":-4,"dy":-1},{"dx":-6,"dy":0},{"dx":-19,"dy":3},{"dx":-13,"dy":2},{"dx":-10,"dy":3},{"dx":-17,"dy":8},{"dx":-10,"dy":4},{"dx":-5,"dy":3},{"dx":-13,"dy":8},{"dx":-8,"dy":7},{"dx":-9,"dy":5},{"dx":-8,"dy":4},{"dx":-7,"dy":4},{"dx":-5,"dy":2},{"dx":-4,"dy":3},{"dx":-3,"dy":5},{"dx":-1,"dy":5},{"dx":-3,"dy":7},{"dx":-2,"dy":7},{"dx":-4,"dy":9},{"dx":-7,"dy":17},{"dx":-3,"dy":5},{"dx":-5,"dy":8},{"dx":-8,"dy":15},{"dx":-5,"dy":10},{"dx":-4,"dy":13},{"dx":-4,"dy":12},{"dx":-4,"dy":9},{"dx":-4,"dy":7},{"dx":-10,"dy":13},{"dx":-4,"dy":6},{"dx":-6,"dy":5},{"dx":-5,"dy":4},{"dx":-6,"dy":2},{"dx":-18,"dy":-2},{"dx":-11,"dy":-6},{"dx":-13,"dy":-8},{"dx":-21,"dy":-17},{"dx":-17,"dy":-23},{"dx":-21,"dy":-24},{"dx":-17,"dy":-27},{"dx":-7,"dy":-14},{"dx":-7,"dy":-10},{"dx":-6,"dy":-9},{"dx":-5,"dy":-6},{"dx":-6,"dy":-5},{"dx":-6,"dy":-5},{"dx":-8,"dy":-6},{"dx":-4,"dy":-3},{"dx":-5,"dy":-2},{"dx":-8,"dy":-3},{"dx":-8,"dy":-1},{"dx":-7,"dy":-2},{"dx":-13,"dy":-3},{"dx":-9,"dy":-1},{"dx":-11,"dy":0},{"dx":-20,"dy":0},{"dx":-13,"dy":1},{"dx":-13,"dy":2},{"dx":-16,"dy":3},{"dx":-14,"dy":2},{"dx":-14,"dy":4},{"dx":-19,"dy":7},{"dx":-10,"dy":4},{"dx":-6,"dy":3},{"dx":-14,"dy":8},{"dx":-10,"dy":9},{"dx":-8,"dy":11},{"dx":-13,"dy":18},{"dx":-6,"dy":11},{"dx":-2,"dy":12},{"dx":-1,"dy":19},{"dx":4,"dy":16},{"dx":7,"dy":22},{"dx":13,"dy":42},{"dx":11,"dy":30},{"dx":9,"dy":20},{"dx":11,"dy":15},{"dx":4,"dy":5},{"dx":3,"dy":3},{"dx":4,"dy":2},{"dx":6,"dy":1},{"dx":13,"dy":1},{"dx":15,"dy":0},{"dx":8,"dy":-2},{"dx":7,"dy":-2},{"dx":8,"dy":-1},{"dx":3,"dy":-1},{"dx":1,"dy":0},{"dx":1,"dy":0},{"dx":5,"dy":0},{"dx":5,"dy":0},{"dx":5,"dy":1},{"dx":7,"dy":1},{"dx":7,"dy":0},{"dx":9,"dy":0},{"dx":4,"dy":0},{"dx":5,"dy":-1},{"dx":6,"dy":-2},{"dx":4,"dy":-1},{"dx":6,"dy":0},{"dx":1,"dy":0},{"dx":4,"dy":0},{"dx":1,"dy":0},{"dx":5,"dy":0},{"dx":5,"dy":2},{"dx":0,"dy":1},{"dx":3,"dy":3},{"dx":2,"dy":6},{"dx":1,"dy":6},{"dx":1,"dy":11},{"dx":1,"dy":5},{"dx":1,"dy":6},{"dx":0,"dy":6},{"dx":1,"dy":5},{"dx":0,"dy":5},{"dx":-6,"dy":5},{"dx":-8,"dy":2},{"dx":-11,"dy":3},{"dx":-21,"dy":0},{"dx":-22,"dy":-2},{"dx":-23,"dy":-6},{"dx":-41,"dy":-11},{"dx":-16,"dy":-6},{"dx":-17,"dy":-6},{"dx":-21,"dy":-9},{"dx":-17,"dy":-9},{"dx":-21,"dy":-13},{"dx":-29,"dy":-23},{"dx":-13,"dy":-10},{"dx":-10,"dy":-11},{"dx":-17,"dy":-18},{"dx":-9,"dy":-14},{"dx":-7,"dy":-15},{"dx":-5,"dy":-23},{"dx":-4,"dy":-13},{"dx":-1,"dy":-6},{"dx":-4,"dy":-22},{"dx":0,"dy":-11},{"dx":0,"dy":-11},{"dx":0,"dy":-21},{"dx":3,"dy":-19},{"dx":5,"dy":-18},{"dx":10,"dy":-23},{"dx":10,"dy":-12},{"dx":11,"dy":-7},{"dx":20,"dy":-8},{"dx":16,"dy":-2},{"dx":6,"dy":0},{"dx":7,"dy":-1},{"dx":3,"dy":0},{"dx":1,"dy":-1},{"dx":11,"dy":-8},{"dx":17,"dy":-22},{"dx":17,"dy":-26},{"dx":10,"dy":-24},{"dx":2,"dy":-8},{"dx":0,"dy":-1},{"dx":-8,"dy":-5},{"dx":-8,"dy":1},{"dx":-13,"dy":7},{"dx":-24,"dy":17},{"dx":-16,"dy":14},{"dx":-11,"dy":10},{"dx":-12,"dy":16},{"dx":-6,"dy":10},{"dx":-3,"dy":15},{"dx":2,"dy":26},{"dx":8,"dy":31},{"dx":11,"dy":36},{"dx":18,"dy":54},{"dx":13,"dy":28},{"dx":13,"dy":24},{"dx":19,"dy":27},{"dx":14,"dy":11},{"dx":11,"dy":8},{"dx":16,"dy":6},{"dx":16,"dy":0},{"dx":13,"dy":0},{"dx":21,"dy":-3},{"dx":14,"dy":-5},{"dx":12,"dy":-7},{"dx":14,"dy":-12},{"dx":7,"dy":-8},{"dx":4,"dy":-4},{"dx":9,"dy":-11},{"dx":3,"dy":-7},{"dx":2,"dy":-8},{"dx":2,"dy":-8},{"dx":4,"dy":-7},{"dx":4,"dy":-6},{"dx":9,"dy":-12},{"dx":7,"dy":-9},{"dx":8,"dy":-8},{"dx":13,"dy":-13},{"dx":9,"dy":-9},{"dx":13,"dy":-7},{"dx":14,"dy":-11},{"dx":4,"dy":-4},{"dx":6,"dy":-5},{"dx":5,"dy":-9},{"dx":0,"dy":0},{"dx":1,"dy":-2},{"dx":0,"dy":-2},{"dx":0,"dy":0},{"dx":1,"dy":0},{"dx":7,"dy":17},{"dx":4,"dy":13},{"dx":-2,"dy":33},{"dx":-41,"dy":88},{"dx":-33,"dy":52},{"dx":-24,"dy":30},{"dx":-19,"dy":17},{"dx":-6,"dy":4},{"dx":-10,"dy":5},{"dx":-14,"dy":5},{"dx":-7,"dy":4},{"dx":-1,"dy":0},{"dx":-4,"dy":3},{"dx":0,"dy":0},{"dx":0,"dy":0},{"dx":0,"dy":0},{"dx":0,"dy":0},{"dx":-1,"dy":1},{"dx":-3,"dy":4},{"dx":-10,"dy":8},{"dx":-13,"dy":7},{"dx":-14,"dy":6},{"dx":-28,"dy":10},{"dx":-25,"dy":5},{"dx":-19,"dy":4},{"dx":-23,"dy":5},{"dx":-5,"dy":1},{"dx":-6,"dy":2},{"dx":-4,"dy":1},{"dx":0,"dy":0},{"dx":0,"dy":0},{"dx":0,"dy":0},{"dx":0,"dy":0},{"dx":0,"dy":0},{"dx":18,"dy":3},{"dx":20,"dy":3},{"dx":23,"dy":7},{"dx":34,"dy":17},{"dx":24,"dy":15},{"dx":15,"dy":11},{"dx":19,"dy":12},{"dx":6,"dy":3},{"dx":5,"dy":3},{"dx":7,"dy":1},{"dx":4,"dy":1},{"dx":1,"dy":0},{"dx":1,"dy":0},{"dx":0,"dy":0},{"dx":0,"dy":0},{"dx":0,"dy":0},{"dx":0,"dy":0},{"dx":-6,"dy":7},{"dx":-22,"dy":16},{"dx":-13,"dy":11},{"dx":-12,"dy":10},{"dx":-8,"dy":8},{"dx":-6,"dy":5},{"dx":-5,"dy":3},{"dx":-8,"dy":3},{"dx":-5,"dy":2},{"dx":0,"dy":0},{"dx":-2,"dy":0},{"dx":0,"dy":0},{"dx":0,"dy":0},{"dx":-1,"dy":0},{"dx":0,"dy":0},{"dx":-4,"dy":-4},{"dx":0,"dy":-2},{"dx":0,"dy":-6},{"dx":7,"dy":-13},{"dx":29,"dy":-34},{"dx":23,"dy":-26},{"dx":28,"dy":-29},{"dx":39,"dy":-37},{"dx":10,"dy":-7},{"dx":11,"dy":-4},{"dx":18,"dy":0},{"dx":12,"dy":5},{"dx":11,"dy":6},{"dx":18,"dy":9},{"dx":9,"dy":5},{"dx":12,"dy":5},{"dx":23,"dy":7},{"dx":14,"dy":3},{"dx":14,"dy":2},{"dx":15,"dy":1},{"dx":6,"dy":0},{"dx":0,"dy":0},{"dx":2,"dy":-1},{"dx":0,"dy":-1},{"dx":3,"dy":-10},{"dx":5,"dy":-25},{"dx":8,"dy":-28},{"dx":11,"dy":-23},{"dx":13,"dy":-26},{"dx":7,"dy":-12},{"dx":5,"dy":-8},{"dx":5,"dy":-12},{"dx":2,"dy":-15},{"dx":0,"dy":-16},{"dx":-4,"dy":-20},{"dx":-4,"dy":-11},{"dx":-8,"dy":-9},{"dx":-29,"dy":-13},{"dx":-31,"dy":-1},{"dx":-39,"dy":4},{"dx":-57,"dy":15},{"dx":-40,"dy":16},{"dx":-41,"dy":19},{"dx":-60,"dy":30},{"dx":-32,"dy":15},{"dx":-21,"dy":11},{"dx":-18,"dy":9},{"dx":-10,"dy":4},{"dx":-9,"dy":3},{"dx":-15,"dy":2},{"dx":-4,"dy":0},{"dx":-8,"dy":0},{"dx":-9,"dy":-3},{"dx":-2,"dy":-4},{"dx":-1,"dy":-6},{"dx":4,"dy":-22},{"dx":10,"dy":-20},{"dx":21,"dy":-25},{"dx":48,"dy":-46},{"dx":33,"dy":-21},{"dx":29,"dy":-14},{"dx":32,"dy":-13},{"dx":11,"dy":-3},{"dx":9,"dy":0},{"dx":14,"dy":6},{"dx":17,"dy":10},{"dx":17,"dy":18},{"dx":29,"dy":26},{"dx":19,"dy":17},{"dx":13,"dy":12},{"dx":11,"dy":14},{"dx":17,"dy":17},{"dx":10,"dy":12},{"dx":9,"dy":11},{"dx":14,"dy":17},{"dx":9,"dy":8},{"dx":15,"dy":15},{"dx":10,"dy":12},{"dx":9,"dy":14},{"dx":13,"dy":18},{"dx":6,"dy":11},{"dx":3,"dy":5},{"dx":4,"dy":8},{"dx":5,"dy":10},{"dx":4,"dy":6},{"dx":3,"dy":4},{"dx":5,"dy":5},{"dx":5,"dy":3},{"dx":16,"dy":1},{"dx":11,"dy":0},{"dx":13,"dy":-2},{"dx":20,"dy":-12},{"dx":11,"dy":-10},{"dx":3,"dy":-4},{"dx":10,"dy":-16},{"dx":5,"dy":-14},{"dx":7,"dy":-17},{"dx":8,"dy":-27},{"dx":5,"dy":-20},{"dx":2,"dy":-13},{"dx":1,"dy":-7}],"trial_type":"plugin-moving-dots-2","trial_index":12,"plugin_version":"0.0.1","time_elapsed":73878},{"task":"fixation","rt":2107,"stimulus":"<div style=\"font-size:60px;\">+</div>","response":" ","trial_type":"html-keyboard-response","trial_index":13,"plugin_version":"2.1.0","time_elapsed":75987},{"task":"movingdots","control_change":0,"mouse_data":[{"dx":0,"dy":0},{"dx":0,"dy":0},{"dx":0,"dy":0},{"dx":0,"dy":0},{"dx":0,"dy":0},{"dx":0,"dy":0},{"dx":0,"dy":0},{"dx":0,"dy":0},{"dx":0,"dy":0},{"dx":0,"dy":0},{"dx":0,"dy":0},{"dx":0,"dy":0},{"dx":0,"dy":0},{"dx":0,"dy":0},{"dx":0,"dy":0},{"dx":0,"dy":0},{"dx":0,"dy":0},{"dx":0,"dy":0},{"dx":0,"dy":0},{"dx":0,"dy":0},{"dx":0,"dy":0},{"dx":0,"dy":0},{"dx":0,"dy":0},{"dx":16,"dy":-5},{"dx":25,"dy":-9},{"dx":23,"dy":-8},{"dx":35,"dy":-11},{"dx":18,"dy":-5},{"dx":14,"dy":-4},{"dx":12,"dy":-4},{"dx":5,"dy":-3},{"dx":4,"dy":-1},{"dx":0,"dy":0},{"dx":0,"dy":-1},{"dx":1,"dy":0},{"dx":0,"dy":-1},{"dx":0,"dy":0},{"dx":1,"dy":-1},{"dx":0,"dy":0},{"dx":0,"dy":0},{"dx":0,"dy":-1},{"dx":0,"dy":0},{"dx":1,"dy":-1},{"dx":12,"dy":-15},{"dx":7,"dy":-12},{"dx":6,"dy":-11},{"dx":3,"dy":-8},{"dx":3,"dy":-5},{"dx":4,"dy":-12},{"dx":1,"dy":-10},{"dx":2,"dy":-13},{"dx":0,"dy":-15},{"dx":0,"dy":-8},{"dx":-2,"dy":-9},{"dx":-7,"dy":-15},{"dx":-7,"dy":-8},{"dx":-11,"dy":-8},{"dx":-23,"dy":-7},{"dx":-13,"dy":-2},{"dx":-13,"dy":-1},{"dx":-21,"dy":0},{"dx":-11,"dy":0},{"dx":-13,"dy":4},{"dx":-18,"dy":8},{"dx":-10,"dy":9},{"dx":-7,"dy":9},{"dx":-12,"dy":16},{"dx":-8,"dy":14},{"dx":-6,"dy":16},{"dx":-9,"dy":21},{"dx":-2,"dy":18},{"dx":-1,"dy":15},{"dx":1,"dy":24},{"dx":3,"dy":20},{"dx":3,"dy":15},{"dx":2,"dy":17},{"dx":-1,"dy":10},{"dx":-3,"dy":5},{"dx":-15,"dy":10},{"dx":-13,"dy":5},{"dx":-15,"dy":2},{"dx":-20,"dy":4},{"dx":-13,"dy":0},{"dx":-10,"dy":0},{"dx":-9,"dy":-1},{"dx":-8,"dy":-4},{"dx":-6,"dy":-5},{"dx":-13,"dy":-10},{"dx":-8,"dy":-5},{"dx":-9,"dy":-7},{"dx":-14,"dy":-12},{"dx":-10,"dy":-12},{"dx":-8,"dy":-8},{"dx":-7,"dy":-8},{"dx":-6,"dy":-7},{"dx":-9,"dy":-13},{"dx":-7,"dy":-16},{"dx":-3,"dy":-8},{"dx":-2,"dy":-4},{"dx":0,"dy":-6},{"dx":0,"dy":-5},{"dx":3,"dy":-14},{"dx":14,"dy":-21},{"dx":18,"dy":-21},{"dx":23,"dy":-24},{"dx":35,"dy":-26},{"dx":16,"dy":-9},{"dx":11,"dy":-7},{"dx":19,"dy":-8},{"dx":8,"dy":-5},{"dx":6,"dy":-2},{"dx":5,"dy":-1},{"dx":9,"dy":2},{"dx":13,"dy":6},{"dx":21,"dy":18},{"dx":20,"dy":20},{"dx":20,"dy":21},{"dx":20,"dy":18},{"dx":15,"dy":10},{"dx":13,"dy":8},{"dx":15,"dy":9},{"dx":10,"dy":5},{"dx":9,"dy":2},{"dx":12,"dy":1},{"dx":10,"dy":-5},{"dx":7,"dy":-7},{"dx":12,"dy":-14},{"dx":7,"dy":-11},{"dx":6,"dy":-17},{"dx":7,"dy":-27},{"dx":2,"dy":-19},{"dx":0,"dy":-15},{"dx":-4,"dy":-16},{"dx":-5,"dy":-6},{"dx":-9,"dy":-5},{"dx":-16,"dy":-4},{"dx":-15,"dy":-1},{"dx":-14,"dy":2},{"dx":-22,"dy":7},{"dx":-13,"dy":6},{"dx":-9,"dy":7},{"dx":-9,"dy":13},{"dx":-4,"dy":10},{"dx":-1,"dy":13},{"dx":4,"dy":36},{"dx":14,"dy":35},{"dx":15,"dy":35},{"dx":20,"dy":31},{"dx":14,"dy":21},{"dx":20,"dy":20},{"dx":23,"dy":23},{"dx":15,"dy":17},{"dx":14,"dy":14},{"dx":15,"dy":17},{"dx":8,"dy":9},{"dx":5,"dy":3},{"dx":12,"dy":6},{"dx":5,"dy":1},{"dx":5,"dy":0},{"dx":0,"dy":0},{"dx":7,"dy":-6},{"dx":5,"dy":-13},{"dx":6,"dy":-19},{"dx":3,"dy":-4},{"dx":0,"dy":-1},{"dx":0,"dy":-2},{"dx":0,"dy":0},{"dx":0,"dy":0},{"dx":-2,"dy":0},{"dx":-15,"dy":12},{"dx":-17,"dy":16},{"dx":-50,"dy":40},{"dx":-33,"dy":23},{"dx":-31,"dy":22},{"dx":-27,"dy":21},{"dx":-10,"dy":7},{"dx":-10,"dy":7},{"dx":-11,"dy":6},{"dx":-15,"dy":8},{"dx":-12,"dy":3},{"dx":-12,"dy":0},{"dx":-17,"dy":-3},{"dx":-10,"dy":-5},{"dx":-10,"dy":-5},{"dx":-16,"dy":-14},{"dx":-10,"dy":-12},{"dx":-9,"dy":-14},{"dx":-10,"dy":-21},{"dx":-5,"dy":-12},{"dx":-3,"dy":-10},{"dx":-1,"dy":-12},{"dx":0,"dy":-9},{"dx":0,"dy":-9},{"dx":7,"dy":-18},{"dx":8,"dy":-9},{"dx":14,"dy":-10},{"dx":24,"dy":-11},{"dx":24,"dy":-5},{"dx":22,"dy":-3},{"dx":26,"dy":0},{"dx":14,"dy":-1},{"dx":12,"dy":-2},{"dx":18,"dy":-4},{"dx":16,"dy":-4},{"dx":15,"dy":-4},{"dx":26,"dy":-8},{"dx":12,"dy":-7},{"dx":10,"dy":-7},{"dx":13,"dy":-11},{"dx":6,"dy":-8},{"dx":5,"dy":-10},{"dx":7,"dy":-17},{"dx":4,"dy":-13},{"dx":2,"dy":-14},{"dx":0,"dy":-23},{"dx":-2,"dy":-12},{"dx":-7,"dy":-9},{"dx":-18,"dy":-16},{"dx":-22,"dy":-13},{"dx":-23,"dy":-10},{"dx":-38,"dy":-11},{"dx":-23,"dy":-4},{"dx":-26,"dy":-1},{"dx":-34,"dy":-1},{"dx":-22,"dy":3},{"dx":-14,"dy":4},{"dx":-22,"dy":10},{"dx":-19,"dy":11},{"dx":-16,"dy":13},{"dx":-25,"dy":26},{"dx":-15,"dy":22},{"dx":-9,"dy":18},{"dx":-9,"dy":42},{"dx":-2,"dy":27},{"dx":0,"dy":36},{"dx":2,"dy":52},{"dx":2,"dy":25},{"dx":-1,"dy":19},{"dx":-6,"dy":22},{"dx":-8,"dy":12},{"dx":-9,"dy":9},{"dx":-17,"dy":9},{"dx":-10,"dy":3},{"dx":-12,"dy":1},{"dx":-20,"dy":-1},{"dx":-11,"dy":-3},{"dx":-10,"dy":-3},{"dx":-16,"dy":-9},{"dx":-10,"dy":-10},{"dx":-8,"dy":-10},{"dx":-10,"dy":-22},{"dx":-4,"dy":-14},{"dx":-2,"dy":-13},{"dx":-1,"dy":-25},{"dx":1,"dy":-17},{"dx":4,"dy":-15},{"dx":14,"dy":-35},{"dx":16,"dy":-25},{"dx":14,"dy":-17},{"dx":21,"dy":-22},{"dx":10,"dy":-10},{"dx":10,"dy":-7},{"dx":7,"dy":-5},{"dx":12,"dy":-2},{"dx":11,"dy":0},{"dx":12,"dy":2},{"dx":5,"dy":3},{"dx":3,"dy":5},{"dx":4,"dy":7},{"dx":6,"dy":11},{"dx":5,"dy":11},{"dx":7,"dy":23},{"dx":5,"dy":16},{"dx":4,"dy":27},{"dx":5,"dy":29},{"dx":2,"dy":20},{"dx":0,"dy":16},{"dx":0,"dy":18},{"dx":-1,"dy":10},{"dx":0,"dy":11},{"dx":3,"dy":16},{"dx":3,"dy":13},{"dx":5,"dy":13},{"dx":9,"dy":18},{"dx":11,"dy":12},{"dx":12,"dy":13},{"dx":25,"dy":16},{"dx":18,"dy":8},{"dx":13,"dy":3},{"dx":21,"dy":3},{"dx":13,"dy":-1},{"dx":12,"dy":-2},{"dx":12,"dy":-5},{"dx":19,"dy":-9},{"dx":12,"dy":-7},{"dx":12,"dy":-12},{"dx":19,"dy":-18},{"dx":10,"dy":-12},{"dx":10,"dy":-11},{"dx":14,"dy":-18},{"dx":8,"dy":-12},{"dx":11,"dy":-17},{"dx":5,"dy":-15},{"dx":2,"dy":-16},{"dx":2,"dy":-16},{"dx":-3,"dy":-24},{"dx":-3,"dy":-13},{"dx":-3,"dy":-7},{"dx":-4,"dy":-9},{"dx":-8,"dy":-12},{"dx":-14,"dy":-12},{"dx":-42,"dy":-18},{"dx":-28,"dy":-6},{"dx":-18,"dy":-1},{"dx":-12,"dy":-1},{"dx":-4,"dy":1},{"dx":-1,"dy":0},{"dx":-4,"dy":3},{"dx":-1,"dy":7},{"dx":0,"dy":6},{"dx":4,"dy":14},{"dx":2,"dy":7},{"dx":1,"dy":6},{"dx":0,"dy":9},{"dx":-6,"dy":15},{"dx":-12,"dy":14},{"dx":-25,"dy":24},{"dx":-15,"dy":11},{"dx":-12,"dy":7},{"dx":-18,"dy":5},{"dx":-13,"dy":2},{"dx":-15,"dy":0},{"dx":-18,"dy":2},{"dx":-10,"dy":1},{"dx":-10,"dy":-1},{"dx":-8,"dy":-3},{"dx":-4,"dy":-3},{"dx":-3,"dy":-7},{"dx":-2,"dy":-15},{"dx":5,"dy":-10},{"dx":12,"dy":-17},{"dx":13,"dy":-11},{"dx":22,"dy":-12},{"dx":21,"dy":-9},{"dx":38,"dy":-10},{"dx":15,"dy":-2},{"dx":19,"dy":2},{"dx":12,"dy":7},{"dx":11,"dy":10},{"dx":8,"dy":10},{"dx":8,"dy":12},{"dx":7,"dy":7},{"dx":13,"dy":12},{"dx":7,"dy":6},{"dx":5,"dy":4},{"dx":6,"dy":3},{"dx":12,"dy":1},{"dx":8,"dy":-3},{"dx":15,"dy":-9},{"dx":14,"dy":-8},{"dx":18,"dy":-13},{"dx":18,"dy":-15},{"dx":22,"dy":-22},{"dx":15,"dy":-13},{"dx":12,"dy":-10},{"dx":17,"dy":-13},{"dx":13,"dy":-9},{"dx":12,"dy":-8},{"dx":17,"dy":-13},{"dx":7,"dy":-7},{"dx":6,"dy":-7},{"dx":4,"dy":-8},{"dx":-3,"dy":-12},{"dx":-9,"dy":-11},{"dx":-36,"dy":-27},{"dx":-23,"dy":-14},{"dx":-15,"dy":-7},{"dx":-16,"dy":-5},{"dx":-6,"dy":-2},{"dx":-1,"dy":-1},{"dx":-5,"dy":-1},{"dx":0,"dy":0},{"dx":-1,"dy":0},{"dx":0,"dy":0},{"dx":0,"dy":0},{"dx":6,"dy":-1},{"dx":17,"dy":1},{"dx":12,"dy":1},{"dx":14,"dy":2},{"dx":22,"dy":4},{"dx":11,"dy":2},{"dx":8,"dy":1},{"dx":1,"dy":0},{"dx":1,"dy":0},{"dx":0,"dy":0},{"dx":0,"dy":-1},{"dx":-3,"dy":-7},{"dx":-11,"dy":-10},{"dx":-29,"dy":-20},{"dx":-24,"dy":-12},{"dx":-22,"dy":-9},{"dx":-28,"dy":-10},{"dx":-14,"dy":-5},{"dx":-5,"dy":-1},{"dx":-11,"dy":-6},{"dx":-5,"dy":-4},{"dx":-8,"dy":-4},{"dx":-21,"dy":-6},{"dx":-15,"dy":-3},{"dx":-14,"dy":-3},{"dx":-22,"dy":0},{"dx":-14,"dy":0},{"dx":-20,"dy":0},{"dx":-26,"dy":2},{"dx":-15,"dy":1},{"dx":-11,"dy":3},{"dx":-16,"dy":4},{"dx":-10,"dy":4},{"dx":-14,"dy":6},{"dx":-27,"dy":16},{"dx":-24,"dy":20},{"dx":-24,"dy":18},{"dx":-21,"dy":20},{"dx":-8,"dy":11},{"dx":-9,"dy":15},{"dx":-8,"dy":20},{"dx":-5,"dy":19},{"dx":-5,"dy":24},{"dx":-7,"dy":33},{"dx":-3,"dy":18},{"dx":-3,"dy":14},{"dx":-1,"dy":20},{"dx":0,"dy":14},{"dx":1,"dy":14},{"dx":8,"dy":35},{"dx":8,"dy":23},{"dx":11,"dy":20},{"dx":15,"dy":22},{"dx":6,"dy":8},{"dx":4,"dy":6},{"dx":3,"dy":4},{"dx":0,"dy":0},{"dx":0,"dy":1},{"dx":-11,"dy":14},{"dx":-14,"dy":5},{"dx":-14,"dy":3},{"dx":-22,"dy":0},{"dx":-12,"dy":-1},{"dx":-9,"dy":-3},{"dx":-13,"dy":-7},{"dx":-10,"dy":-6},{"dx":-9,"dy":-10},{"dx":-12,"dy":-16}],"trial_type":"plugin-moving-dots-2","trial_index":14,"plugin_version":"0.0.1","time_elapsed":83494},{"task":"fixation","rt":3466,"stimulus":"<div style=\"font-size:60px;\">+</div>","response":" ","trial_type":"html-keyboard-response","trial_index":15,"plugin_version":"2.1.0","time_elapsed":86963},{"task":"movingdots","control_change":0,"mouse_data":[{"dx":0,"dy":0},{"dx":0,"dy":0},{"dx":0,"dy":0},{"dx":0,"dy":0},{"dx":0,"dy":0},{"dx":0,"dy":0},{"dx":0,"dy":0},{"dx":0,"dy":0},{"dx":0,"dy":0},{"dx":0,"dy":0},{"dx":0,"dy":0},{"dx":0,"dy":0},{"dx":0,"dy":0},{"dx":0,"dy":0},{"dx":0,"dy":0},{"dx":0,"dy":0},{"dx":0,"dy":0},{"dx":0,"dy":0},{"dx":0,"dy":0},{"dx":0,"dy":0},{"dx":0,"dy":0},{"dx":0,"dy":0},{"dx":0,"dy":0},{"dx":0,"dy":0},{"dx":0,"dy":0},{"dx":0,"dy":0},{"dx":5,"dy":0},{"dx":16,"dy":-1},{"dx":16,"dy":0},{"dx":17,"dy":2},{"dx":11,"dy":1},{"dx":6,"dy":1},{"dx":12,"dy":2},{"dx":1,"dy":0},{"dx":5,"dy":2},{"dx":5,"dy":1},{"dx":5,"dy":0},{"dx":1,"dy":0},{"dx":11,"dy":-1},{"dx":8,"dy":-2},{"dx":10,"dy":-3},{"dx":14,"dy":-6},{"dx":11,"dy":-6},{"dx":10,"dy":-7},{"dx":8,"dy":-9},{"dx":5,"dy":-5},{"dx":5,"dy":-7},{"dx":11,"dy":-18},{"dx":5,"dy":-10},{"dx":5,"dy":-10},{"dx":3,"dy":-8},{"dx":5,"dy":-12},{"dx":2,"dy":-11},{"dx":3,"dy":-16},{"dx":2,"dy":-12},{"dx":0,"dy":-15},{"dx":-4,"dy":-17},{"dx":-6,"dy":-10},{"dx":-8,"dy":-8},{"dx":-12,"dy":-11},{"dx":-8,"dy":-6},{"dx":-11,"dy":-5},{"dx":-22,"dy":-6},{"dx":-17,"dy":-2},{"dx":-17,"dy":1},{"dx":-17,"dy":3},{"dx":-9,"dy":3},{"dx":-9,"dy":6},{"dx":-6,"dy":6},{"dx":-5,"dy":7},{"dx":-3,"dy":14},{"dx":2,"dy":22},{"dx":6,"dy":15},{"dx":8,"dy":17},{"dx":11,"dy":22},{"dx":11,"dy":14},{"dx":16,"dy":18},{"dx":19,"dy":28},{"dx":10,"dy":13},{"dx":8,"dy":13},{"dx":15,"dy":19},{"dx":9,"dy":11},{"dx":8,"dy":11},{"dx":13,"dy":21},{"dx":7,"dy":12},{"dx":6,"dy":10},{"dx":4,"dy":5},{"dx":2,"dy":4},{"dx":1,"dy":5},{"dx":1,"dy":6},{"dx":-1,"dy":5},{"dx":-11,"dy":9},{"dx":-22,"dy":13},{"dx":-21,"dy":7},{"dx":-21,"dy":6},{"dx":-30,"dy":4},{"dx":-15,"dy":0},{"dx":-14,"dy":0},{"dx":-20,"dy":-4},{"dx":-5,"dy":-2},{"dx":-7,"dy":-3},{"dx":-7,"dy":-7},{"dx":-2,"dy":-8},{"dx":-1,"dy":-11},{"dx":4,"dy":-20},{"dx":6,"dy":-13},{"dx":10,"dy":-13},{"dx":16,"dy":-13},{"dx":12,"dy":-6},{"dx":11,"dy":-3},{"dx":11,"dy":0},{"dx":11,"dy":3},{"dx":10,"dy":6},{"dx":23,"dy":16},{"dx":11,"dy":11},{"dx":9,"dy":9},{"dx":10,"dy":7},{"dx":15,"dy":9},{"dx":9,"dy":4},{"dx":8,"dy":3},{"dx":13,"dy":3},{"dx":12,"dy":0},{"dx":7,"dy":-1},{"dx":0,"dy":-1},{"dx":0,"dy":0},{"dx":0,"dy":0},{"dx":0,"dy":0},{"dx":0,"dy":0},{"dx":0,"dy":0},{"dx":0,"dy":0},{"dx":0,"dy":0},{"dx":0,"dy":-4},{"dx":-2,"dy":-21},{"dx":-4,"dy":-13},{"dx":-4,"dy":-13},{"dx":-10,"dy":-29},{"dx":-7,"dy":-14},{"dx":-7,"dy":-12},{"dx":-9,"dy":-14},{"dx":-7,"dy":-9},{"dx":-8,"dy":-9},{"dx":-10,"dy":-9},{"dx":-5,"dy":-5},{"dx":-3,"dy":-3},{"dx":-8,"dy":-6},{"dx":-5,"dy":-3},{"dx":-11,"dy":-5},{"dx":-28,"dy":-10},{"dx":-18,"dy":-3},{"dx":-13,"dy":-2},{"dx":-15,"dy":-2},{"dx":-11,"dy":1},{"dx":-13,"dy":2},{"dx":-22,"dy":11},{"dx":-18,"dy":12},{"dx":-16,"dy":15},{"dx":-18,"dy":24},{"dx":-11,"dy":13},{"dx":-10,"dy":11},{"dx":-11,"dy":16},{"dx":-5,"dy":7},{"dx":-3,"dy":6},{"dx":-2,"dy":1},{"dx":0,"dy":1},{"dx":-1,"dy":1},{"dx":-2,"dy":-4},{"dx":-2,"dy":-14},{"dx":-1,"dy":-20},{"dx":6,"dy":-45},{"dx":15,"dy":-34},{"dx":20,"dy":-33},{"dx":17,"dy":-21},{"dx":10,"dy":-9},{"dx":5,"dy":-3},{"dx":6,"dy":-4},{"dx":1,"dy":-1},{"dx":0,"dy":0},{"dx":7,"dy":0},{"dx":0,"dy":0},{"dx":3,"dy":1},{"dx":0,"dy":0},{"dx":0,"dy":0},{"dx":0,"dy":0},{"dx":0,"dy":0},{"dx":0,"dy":0},{"dx":0,"dy":0},{"dx":0,"dy":0},{"dx":0,"dy":0},{"dx":0,"dy":0},{"dx":0,"dy":0},{"dx":0,"dy":0},{"dx":0,"dy":0},{"dx":-27,"dy":-46},{"dx":-17,"dy":-27},{"dx":-16,"dy":-19},{"dx":-32,"dy":-35},{"dx":-16,"dy":-15},{"dx":-12,"dy":-9},{"dx":-15,"dy":-7},{"dx":-8,"dy":-3},{"dx":-8,"dy":0},{"dx":-19,"dy":1},{"dx":-15,"dy":5},{"dx":-15,"dy":7},{"dx":-20,"dy":15},{"dx":-14,"dy":16},{"dx":-14,"dy":24},{"dx":-22,"dy":47},{"dx":-10,"dy":31},{"dx":-5,"dy":25},{"dx":-1,"dy":39},{"dx":3,"dy":25},{"dx":4,"dy":23},{"dx":10,"dy":35},{"dx":12,"dy":21},{"dx":15,"dy":17},{"dx":19,"dy":16},{"dx":17,"dy":7},{"dx":20,"dy":4},{"dx":37,"dy":1},{"dx":26,"dy":0},{"dx":31,"dy":-1},{"dx":28,"dy":-2},{"dx":17,"dy":0},{"dx":14,"dy":-1},{"dx":10,"dy":-2},{"dx":6,"dy":-1},{"dx":4,"dy":-1},{"dx":0,"dy":0},{"dx":0,"dy":0},{"dx":1,"dy":0},{"dx":16,"dy":0},{"dx":6,"dy":0},{"dx":8,"dy":3},{"dx":16,"dy":11},{"dx":10,"dy":14},{"dx":8,"dy":16},{"dx":4,"dy":13},{"dx":1,"dy":6},{"dx":1,"dy":6},{"dx":0,"dy":1},{"dx":-1,"dy":6},{"dx":-6,"dy":4},{"dx":-14,"dy":4},{"dx":-14,"dy":1},{"dx":-14,"dy":-2},{"dx":-22,"dy":-6},{"dx":-15,"dy":-5},{"dx":-16,"dy":-6},{"dx":-17,"dy":-8},{"dx":-24,"dy":-15},{"dx":-13,"dy":-13},{"dx":-7,"dy":-8},{"dx":-3,"dy":-7},{"dx":-2,"dy":-5},{"dx":0,"dy":0},{"dx":5,"dy":-7},{"dx":10,"dy":-6},{"dx":13,"dy":-6},{"dx":25,"dy":-6},{"dx":16,"dy":-1},{"dx":17,"dy":0},{"dx":29,"dy":4},{"dx":20,"dy":3},{"dx":23,"dy":4},{"dx":24,"dy":1},{"dx":21,"dy":0},{"dx":14,"dy":0},{"dx":22,"dy":-2},{"dx":17,"dy":-2},{"dx":16,"dy":-5},{"dx":33,"dy":-23},{"dx":22,"dy":-27},{"dx":14,"dy":-23},{"dx":9,"dy":-35},{"dx":1,"dy":-19},{"dx":-3,"dy":-24},{"dx":-7,"dy":-39},{"dx":-10,"dy":-36},{"dx":-13,"dy":-35},{"dx":-24,"dy":-44},{"dx":-16,"dy":-22},{"dx":-19,"dy":-15},{"dx":-32,"dy":-15},{"dx":-17,"dy":-5},{"dx":-16,"dy":-3},{"dx":-27,"dy":-1},{"dx":-19,"dy":0},{"dx":-14,"dy":3},{"dx":-29,"dy":12},{"dx":-23,"dy":15},{"dx":-21,"dy":18},{"dx":-30,"dy":35},{"dx":-17,"dy":33},{"dx":-13,"dy":43},{"dx":-6,"dy":67},{"dx":1,"dy":43},{"dx":5,"dy":39},{"dx":19,"dy":46},{"dx":18,"dy":29},{"dx":14,"dy":20},{"dx":20,"dy":18},{"dx":16,"dy":8},{"dx":12,"dy":4},{"dx":28,"dy":2},{"dx":15,"dy":-2},{"dx":13,"dy":-5},{"dx":22,"dy":-12},{"dx":12,"dy":-10},{"dx":11,"dy":-10},{"dx":15,"dy":-11},{"dx":10,"dy":-6},{"dx":4,"dy":-4},{"dx":1,"dy":0},{"dx":1,"dy":-2},{"dx":1,"dy":0},{"dx":0,"dy":-2},{"dx":0,"dy":-5},{"dx":-4,"dy":-3},{"dx":-19,"dy":-3},{"dx":-12,"dy":1},{"dx":-17,"dy":7},{"dx":-31,"dy":16},{"dx":-23,"dy":14},{"dx":-20,"dy":14},{"dx":-25,"dy":21},{"dx":-10,"dy":10},{"dx":-8,"dy":10},{"dx":-7,"dy":7},{"dx":-9,"dy":7},{"dx":-10,"dy":4},{"dx":-15,"dy":3},{"dx":-8,"dy":-1},{"dx":-11,"dy":-6},{"dx":-16,"dy":-13},{"dx":-9,"dy":-10},{"dx":-7,"dy":-10},{"dx":-6,"dy":-14},{"dx":-1,"dy":-6},{"dx":0,"dy":-6},{"dx":2,"dy":-7},{"dx":3,"dy":-5},{"dx":8,"dy":-7},{"dx":9,"dy":-5},{"dx":13,"dy":-5},{"dx":11,"dy":-1},{"dx":19,"dy":0},{"dx":10,"dy":1},{"dx":10,"dy":1},{"dx":10,"dy":1},{"dx":6,"dy":0},{"dx":4,"dy":0},{"dx":4,"dy":-1},{"dx":5,"dy":-4},{"dx":3,"dy":-11},{"dx":2,"dy":-23},{"dx":1,"dy":-14},{"dx":0,"dy":-13},{"dx":-5,"dy":-20},{"dx":-7,"dy":-10},{"dx":-9,"dy":-8},{"dx":-17,"dy":-9},{"dx":-10,"dy":-2},{"dx":-14,"dy":-1},{"dx":-20,"dy":2},{"dx":-18,"dy":4},{"dx":-15,"dy":5},{"dx":-22,"dy":5},{"dx":-14,"dy":4},{"dx":-14,"dy":2},{"dx":-20,"dy":4},{"dx":-14,"dy":2},{"dx":-15,"dy":0},{"dx":-12,"dy":0},{"dx":-18,"dy":0},{"dx":-9,"dy":-2},{"dx":-18,"dy":-5},{"dx":-11,"dy":-5},{"dx":-9,"dy":-7},{"dx":-11,"dy":-15},{"dx":-6,"dy":-14},{"dx":-3,"dy":-12},{"dx":-1,"dy":-15},{"dx":4,"dy":-25},{"dx":6,"dy":-13},{"dx":7,"dy":-12},{"dx":6,"dy":-11},{"dx":1,"dy":-1},{"dx":1,"dy":-1},{"dx":0,"dy":0},{"dx":0,"dy":0},{"dx":0,"dy":0},{"dx":-12,"dy":8},{"dx":-11,"dy":9},{"dx":-11,"dy":11},{"dx":-21,"dy":18},{"dx":-14,"dy":15},{"dx":-20,"dy":23},{"dx":-21,"dy":26},{"dx":-10,"dy":12},{"dx":-6,"dy":11},{"dx":-4,"dy":10},{"dx":-1,"dy":7},{"dx":0,"dy":7},{"dx":6,"dy":26},{"dx":7,"dy":21},{"dx":9,"dy":13},{"dx":12,"dy":12},{"dx":9,"dy":4},{"dx":16,"dy":2},{"dx":34,"dy":-1},{"dx":32,"dy":-7},{"dx":32,"dy":-11},{"dx":50,"dy":-31},{"dx":31,"dy":-25},{"dx":39,"dy":-32},{"dx":42,"dy":-34},{"dx":19,"dy":-14},{"dx":9,"dy":-7},{"dx":4,"dy":-2},{"dx":5,"dy":0},{"dx":4,"dy":4},{"dx":7,"dy":14},{"dx":6,"dy":14},{"dx":9,"dy":15},{"dx":12,"dy":31},{"dx":7,"dy":19},{"dx":6,"dy":21},{"dx":7,"dy":27},{"dx":4,"dy":11},{"dx":3,"dy":6},{"dx":4,"dy":5},{"dx":1,"dy":0},{"dx":4,"dy":1},{"dx":6,"dy":-1},{"dx":18,"dy":-11},{"dx":12,"dy":-10},{"dx":16,"dy":-19},{"dx":9,"dy":-10},{"dx":10,"dy":-12},{"dx":11,"dy":-14},{"dx":4,"dy":-5},{"dx":5,"dy":-5},{"dx":9,"dy":-7},{"dx":7,"dy":-2},{"dx":11,"dy":-1},{"dx":10,"dy":2},{"dx":7,"dy":4},{"dx":5,"dy":11},{"dx":5,"dy":21},{"dx":3,"dy":14},{"dx":3,"dy":13},{"dx":3,"dy":8}],"trial_type":"plugin-moving-dots-2","trial_index":16,"plugin_version":"0.0.1","time_elapsed":94477},{"task":"fixation","rt":2596,"stimulus":"<div style=\"font-size:60px;\">+</div>","response":" ","trial_type":"html-keyboard-response","trial_index":17,"plugin_version":"2.1.0","time_elapsed":97075},{"task":"movingdots","control_change":0,"mouse_data":[{"dx":0,"dy":0},{"dx":0,"dy":0},{"dx":0,"dy":0},{"dx":0,"dy":0},{"dx":0,"dy":0},{"dx":0,"dy":0},{"dx":0,"dy":0},{"dx":0,"dy":0},{"dx":0,"dy":0},{"dx":0,"dy":0},{"dx":0,"dy":0},{"dx":0,"dy":0},{"dx":0,"dy":0},{"dx":0,"dy":0},{"dx":0,"dy":0},{"dx":0,"dy":0},{"dx":0,"dy":0},{"dx":0,"dy":0},{"dx":0,"dy":0},{"dx":0,"dy":0},{"dx":0,"dy":0},{"dx":0,"dy":0},{"dx":0,"dy":0},{"dx":0,"dy":0},{"dx":0,"dy":0},{"dx":0,"dy":0},{"dx":0,"dy":0},{"dx":13,"dy":0},{"dx":22,"dy":3},{"dx":17,"dy":3},{"dx":20,"dy":4},{"dx":11,"dy":2},{"dx":10,"dy":0},{"dx":6,"dy":1},{"dx":3,"dy":0},{"dx":6,"dy":0},{"dx":6,"dy":0},{"dx":4,"dy":-1},{"dx":5,"dy":-2},{"dx":13,"dy":-7},{"dx":5,"dy":-4},{"dx":6,"dy":-7},{"dx":12,"dy":-12},{"dx":9,"dy":-9},{"dx":7,"dy":-9},{"dx":10,"dy":-13},{"dx":3,"dy":-6},{"dx":5,"dy":-7},{"dx":8,"dy":-12},{"dx":4,"dy":-6},{"dx":5,"dy":-7},{"dx":9,"dy":-13},{"dx":6,"dy":-10},{"dx":6,"dy":-9},{"dx":5,"dy":-9},{"dx":5,"dy":-12},{"dx":2,"dy":-5},{"dx":5,"dy":-16},{"dx":1,"dy":-9},{"dx":0,"dy":-10},{"dx":-3,"dy":-21},{"dx":-4,"dy":-10},{"dx":-4,"dy":-10},{"dx":-10,"dy":-14},{"dx":-11,"dy":-11},{"dx":-13,"dy":-9},{"dx":-18,"dy":-10},{"dx":-10,"dy":-4},{"dx":-8,"dy":-1},{"dx":-5,"dy":0},{"dx":-16,"dy":1},{"dx":-7,"dy":3},{"dx":-7,"dy":5},{"dx":-10,"dy":12},{"dx":-5,"dy":9},{"dx":-1,"dy":10},{"dx":0,"dy":10},{"dx":3,"dy":15},{"dx":4,"dy":11},{"dx":9,"dy":13},{"dx":7,"dy":9},{"dx":19,"dy":20},{"dx":12,"dy":10},{"dx":11,"dy":10},{"dx":16,"dy":13},{"dx":13,"dy":8},{"dx":12,"dy":7},{"dx":16,"dy":8},{"dx":11,"dy":3},{"dx":11,"dy":0},{"dx":10,"dy":0},{"dx":8,"dy":0},{"dx":7,"dy":-1},{"dx":4,"dy":0},{"dx":1,"dy":0},{"dx":0,"dy":0},{"dx":0,"dy":0},{"dx":0,"dy":0},{"dx":-4,"dy":14},{"dx":-8,"dy":15},{"dx":-22,"dy":35},{"dx":-15,"dy":20},{"dx":-13,"dy":16},{"dx":-12,"dy":14},{"dx":-7,"dy":8},{"dx":-10,"dy":8},{"dx":-7,"dy":5},{"dx":-6,"dy":3},{"dx":-3,"dy":0},{"dx":-6,"dy":-1},{"dx":-4,"dy":-3},{"dx":-7,"dy":-7},{"dx":-11,"dy":-19},{"dx":-11,"dy":-15},{"dx":-16,"dy":-25},{"dx":-11,"dy":-12},{"dx":-11,"dy":-8},{"dx":-16,"dy":-9},{"dx":-18,"dy":-7},{"dx":-18,"dy":-3},{"dx":-16,"dy":-2},{"dx":-20,"dy":0},{"dx":-9,"dy":3},{"dx":-9,"dy":5},{"dx":-14,"dy":10},{"dx":-9,"dy":10},{"dx":-8,"dy":11},{"dx":-9,"dy":16},{"dx":-2,"dy":11},{"dx":-1,"dy":6},{"dx":3,"dy":16},{"dx":4,"dy":5},{"dx":6,"dy":5},{"dx":12,"dy":8},{"dx":11,"dy":5},{"dx":12,"dy":3},{"dx":17,"dy":2},{"dx":11,"dy":0},{"dx":17,"dy":-1},{"dx":13,"dy":-3},{"dx":9,"dy":-4},{"dx":10,"dy":-5},{"dx":15,"dy":-9},{"dx":8,"dy":-6},{"dx":10,"dy":-12},{"dx":4,"dy":-6},{"dx":3,"dy":-6},{"dx":3,"dy":-7},{"dx":2,"dy":-7},{"dx":2,"dy":-6},{"dx":1,"dy":-5},{"dx":0,"dy":-1},{"dx":0,"dy":-2},{"dx":0,"dy":0},{"dx":0,"dy":0},{"dx":7,"dy":-1},{"dx":6,"dy":0},{"dx":7,"dy":0},{"dx":12,"dy":7},{"dx":10,"dy":7},{"dx":14,"dy":15},{"dx":3,"dy":4},{"dx":4,"dy":6},{"dx":6,"dy":10},{"dx":3,"dy":5},{"dx":2,"dy":3},{"dx":2,"dy":5},{"dx":0,"dy":7},{"dx":-2,"dy":7},{"dx":-4,"dy":11},{"dx":-4,"dy":5},{"dx":-6,"dy":5},{"dx":-17,"dy":9},{"dx":-11,"dy":8},{"dx":-13,"dy":6},{"dx":-18,"dy":7},{"dx":-11,"dy":2},{"dx":-6,"dy":0},{"dx":-17,"dy":-4},{"dx":-11,"dy":-8},{"dx":-10,"dy":-9},{"dx":-17,"dy":-22},{"dx":-16,"dy":-16},{"dx":-14,"dy":-16},{"dx":-27,"dy":-27},{"dx":-16,"dy":-18},{"dx":-11,"dy":-12},{"dx":-16,"dy":-20},{"dx":-9,"dy":-11},{"dx":-8,"dy":-10},{"dx":-8,"dy":-7},{"dx":-6,"dy":-5},{"dx":-12,"dy":-4},{"dx":-18,"dy":0},{"dx":-10,"dy":2},{"dx":-12,"dy":4},{"dx":-18,"dy":11},{"dx":-15,"dy":12},{"dx":-15,"dy":14},{"dx":-22,"dy":25},{"dx":-9,"dy":12},{"dx":-7,"dy":10},{"dx":-4,"dy":8},{"dx":-1,"dy":6},{"dx":0,"dy":6},{"dx":8,"dy":14},{"dx":10,"dy":7},{"dx":11,"dy":8},{"dx":22,"dy":10},{"dx":15,"dy":4},{"dx":12,"dy":2},{"dx":23,"dy":0},{"dx":15,"dy":0},{"dx":15,"dy":-3},{"dx":28,"dy":-5},{"dx":13,"dy":-3},{"dx":16,"dy":-6},{"dx":22,"dy":-13},{"dx":11,"dy":-8},{"dx":10,"dy":-8},{"dx":13,"dy":-13},{"dx":7,"dy":-8},{"dx":5,"dy":-10},{"dx":5,"dy":-18},{"dx":1,"dy":-15},{"dx":0,"dy":-15},{"dx":-3,"dy":-23},{"dx":-6,"dy":-20},{"dx":-12,"dy":-26},{"dx":-19,"dy":-31},{"dx":-16,"dy":-22},{"dx":-17,"dy":-16},{"dx":-26,"dy":-21},{"dx":-25,"dy":-19},{"dx":-19,"dy":-14},{"dx":-21,"dy":-16},{"dx":-11,"dy":-7},{"dx":-5,"dy":-4},{"dx":-17,"dy":-7},{"dx":-11,"dy":-3},{"dx":-10,"dy":0},{"dx":-8,"dy":0},{"dx":-5,"dy":2},{"dx":-5,"dy":3},{"dx":-13,"dy":16},{"dx":-10,"dy":15},{"dx":-11,"dy":23},{"dx":-17,"dy":47},{"dx":-8,"dy":25},{"dx":-5,"dy":24},{"dx":-2,"dy":21},{"dx":1,"dy":11},{"dx":2,"dy":12},{"dx":8,"dy":15},{"dx":10,"dy":8},{"dx":12,"dy":6},{"dx":26,"dy":6},{"dx":21,"dy":3},{"dx":17,"dy":2},{"dx":31,"dy":1},{"dx":18,"dy":-2},{"dx":19,"dy":-1},{"dx":21,"dy":-5},{"dx":12,"dy":-4},{"dx":13,"dy":-6},{"dx":14,"dy":-9},{"dx":4,"dy":-3},{"dx":6,"dy":-4},{"dx":11,"dy":-7},{"dx":8,"dy":-3},{"dx":6,"dy":-2},{"dx":6,"dy":-1},{"dx":7,"dy":0},{"dx":7,"dy":2},{"dx":9,"dy":8},{"dx":9,"dy":20},{"dx":3,"dy":15},{"dx":2,"dy":16},{"dx":0,"dy":14},{"dx":0,"dy":9},{"dx":0,"dy":5},{"dx":-10,"dy":10},{"dx":-10,"dy":4},{"dx":-16,"dy":2},{"dx":-23,"dy":-1},{"dx":-13,"dy":-3},{"dx":-15,"dy":-5},{"dx":-21,"dy":-5},{"dx":-11,"dy":-3},{"dx":-5,"dy":0},{"dx":-13,"dy":0},{"dx":-4,"dy":2},{"dx":-4,"dy":3},{"dx":-5,"dy":5},{"dx":-9,"dy":10},{"dx":-6,"dy":9},{"dx":-7,"dy":7},{"dx":-4,"dy":3},{"dx":-4,"dy":3},{"dx":-1,"dy":1},{"dx":-1,"dy":1},{"dx":-1,"dy":0},{"dx":-2,"dy":1},{"dx":-1,"dy":0},{"dx":0,"dy":1},{"dx":8,"dy":8},{"dx":11,"dy":2},{"dx":21,"dy":2},{"dx":39,"dy":4},{"dx":25,"dy":1},{"dx":19,"dy":-1},{"dx":17,"dy":-4},{"dx":10,"dy":-3},{"dx":4,"dy":-1},{"dx":7,"dy":-3},{"dx":1,"dy":0},{"dx":1,"dy":-1},{"dx":0,"dy":-2},{"dx":-5,"dy":-5},{"dx":-13,"dy":-5},{"dx":-34,"dy":-3},{"dx":-27,"dy":0},{"dx":-31,"dy":4},{"dx":-32,"dy":6},{"dx":-21,"dy":3},{"dx":-24,"dy":7},{"dx":-20,"dy":6},{"dx":-15,"dy":6},{"dx":-15,"dy":6},{"dx":-21,"dy":6},{"dx":-10,"dy":4},{"dx":-10,"dy":3},{"dx":-15,"dy":4},{"dx":-10,"dy":3},{"dx":-7,"dy":1},{"dx":-9,"dy":0},{"dx":-6,"dy":0},{"dx":-4,"dy":-1},{"dx":-10,"dy":-4},{"dx":-7,"dy":-4},{"dx":-5,"dy":-5},{"dx":-12,"dy":-11},{"dx":-7,"dy":-9},{"dx":-6,"dy":-12},{"dx":-10,"dy":-21},{"dx":-6,"dy":-13},{"dx":-4,"dy":-13},{"dx":-3,"dy":-20},{"dx":-1,"dy":-9},{"dx":0,"dy":-6},{"dx":0,"dy":-1},{"dx":2,"dy":-6},{"dx":12,"dy":-11},{"dx":15,"dy":-11},{"dx":14,"dy":-3},{"dx":14,"dy":0},{"dx":23,"dy":9},{"dx":13,"dy":8},{"dx":13,"dy":9},{"dx":12,"dy":15},{"dx":5,"dy":14},{"dx":4,"dy":15},{"dx":5,"dy":29},{"dx":1,"dy":17},{"dx":5,"dy":20},{"dx":8,"dy":26},{"dx":5,"dy":10},{"dx":4,"dy":8},{"dx":5,"dy":5},{"dx":8,"dy":8},{"dx":11,"dy":6},{"dx":20,"dy":7},{"dx":12,"dy":3},{"dx":16,"dy":2},{"dx":32,"dy":1},{"dx":26,"dy":-1},{"dx":18,"dy":-3},{"dx":28,"dy":-6},{"dx":16,"dy":-6},{"dx":14,"dy":-6},{"dx":27,"dy":-11},{"dx":14,"dy":-7},{"dx":12,"dy":-7},{"dx":14,"dy":-9},{"dx":5,"dy":-4},{"dx":4,"dy":-3},{"dx":5,"dy":-4},{"dx":5,"dy":-5},{"dx":10,"dy":-13},{"dx":12,"dy":-15},{"dx":8,"dy":-7},{"dx":8,"dy":-7},{"dx":10,"dy":-7},{"dx":5,"dy":-2},{"dx":7,"dy":-1},{"dx":9,"dy":0},{"dx":6,"dy":0},{"dx":4,"dy":2},{"dx":6,"dy":3},{"dx":4,"dy":4},{"dx":0,"dy":0},{"dx":3,"dy":3},{"dx":1,"dy":1},{"dx":2,"dy":3},{"dx":2,"dy":8},{"dx":1,"dy":5},{"dx":1,"dy":5},{"dx":-2,"dy":16},{"dx":-1,"dy":10},{"dx":-4,"dy":9},{"dx":-3,"dy":7},{"dx":-2,"dy":4},{"dx":-1,"dy":1},{"dx":-1,"dy":1},{"dx":-3,"dy":3},{"dx":-6,"dy":1},{"dx":-7,"dy":1},{"dx":-14,"dy":2},{"dx":-5,"dy":0},{"dx":-6,"dy":0},{"dx":-6,"dy":0},{"dx":-5,"dy":-2},{"dx":-1,"dy":0},{"dx":-7,"dy":-8},{"dx":-1,"dy":-4},{"dx":-2,"dy":-6},{"dx":2,"dy":-6},{"dx":9,"dy":-8},{"dx":13,"dy":-10},{"dx":30,"dy":-16},{"dx":30,"dy":-16},{"dx":27,"dy":-15},{"dx":28,"dy":-16},{"dx":15,"dy":-8},{"dx":14,"dy":-7},{"dx":16,"dy":-7},{"dx":9,"dy":-5},{"dx":9,"dy":-5},{"dx":14,"dy":-7},{"dx":8,"dy":-5},{"dx":8,"dy":-4},{"dx":13,"dy":-5},{"dx":6,"dy":-2},{"dx":7,"dy":-3},{"dx":13,"dy":-9},{"dx":8,"dy":-7},{"dx":11,"dy":-13},{"dx":5,"dy":-8},{"dx":3,"dy":-11},{"dx":0,"dy":-17},{"dx":-14,"dy":-31},{"dx":-16,"dy":-23},{"dx":-17,"dy":-21}],"trial_type":"plugin-moving-dots-2","trial_index":18,"plugin_version":"0.0.1","time_elapsed":104594},{"task":"fixation","rt":4992,"stimulus":"<div style=\"font-size:60px;\">+</div>","response":" ","trial_type":"html-keyboard-response","trial_index":19,"plugin_version":"2.1.0","time_elapsed":109587},{"task":"movingdots","control_change":0,"mouse_data":[{"dx":0,"dy":0},{"dx":0,"dy":0},{"dx":0,"dy":0},{"dx":0,"dy":0},{"dx":0,"dy":0},{"dx":0,"dy":0},{"dx":0,"dy":0},{"dx":0,"dy":0},{"dx":0,"dy":0},{"dx":0,"dy":0},{"dx":0,"dy":0},{"dx":0,"dy":0},{"dx":0,"dy":0},{"dx":0,"dy":0},{"dx":0,"dy":0},{"dx":0,"dy":0},{"dx":0,"dy":0},{"dx":0,"dy":0},{"dx":0,"dy":0},{"dx":0,"dy":0},{"dx":0,"dy":0},{"dx":0,"dy":0},{"dx":0,"dy":0},{"dx":0,"dy":0},{"dx":14,"dy":-6},{"dx":46,"dy":-18},{"dx":77,"dy":-30},{"dx":50,"dy":-18},{"dx":43,"dy":-16},{"dx":52,"dy":-15},{"dx":22,"dy":-6},{"dx":11,"dy":-4},{"dx":4,"dy":-2},{"dx":1,"dy":0},{"dx":0,"dy":-1},{"dx":7,"dy":-15},{"dx":4,"dy":-16},{"dx":1,"dy":-17},{"dx":-1,"dy":-24},{"dx":-7,"dy":-16},{"dx":-12,"dy":-26},{"dx":-22,"dy":-24},{"dx":-12,"dy":-12},{"dx":-10,"dy":-11},{"dx":-19,"dy":-15},{"dx":-26,"dy":-12},{"dx":-34,"dy":-7},{"dx":-40,"dy":-2},{"dx":-16,"dy":0},{"dx":-12,"dy":1},{"dx":-5,"dy":2},{"dx":-16,"dy":11},{"dx":-12,"dy":14},{"dx":-17,"dy":31},{"dx":-27,"dy":62},{"dx":-16,"dy":41},{"dx":-13,"dy":31},{"dx":-11,"dy":27},{"dx":-3,"dy":5},{"dx":0,"dy":1},{"dx":-12,"dy":-2},{"dx":-11,"dy":-10},{"dx":-19,"dy":-21},{"dx":-38,"dy":-53},{"dx":-26,"dy":-37},{"dx":-20,"dy":-33},{"dx":-14,"dy":-34},{"dx":-3,"dy":-19},{"dx":0,"dy":-7},{"dx":5,"dy":-18},{"dx":11,"dy":-7},{"dx":33,"dy":-9},{"dx":84,"dy":-5},{"dx":65,"dy":6},{"dx":59,"dy":14},{"dx":77,"dy":32},{"dx":45,"dy":27},{"dx":36,"dy":28},{"dx":46,"dy":43},{"dx":18,"dy":24},{"dx":13,"dy":19},{"dx":13,"dy":22},{"dx":5,"dy":9},{"dx":4,"dy":8},{"dx":7,"dy":14},{"dx":7,"dy":14},{"dx":7,"dy":11},{"dx":9,"dy":16},{"dx":6,"dy":8},{"dx":7,"dy":8},{"dx":12,"dy":10},{"dx":7,"dy":5},{"dx":10,"dy":3},{"dx":15,"dy":0},{"dx":10,"dy":-2},{"dx":11,"dy":-3},{"dx":16,"dy":-7},{"dx":9,"dy":-6},{"dx":8,"dy":-7},{"dx":10,"dy":-19},{"dx":4,"dy":-18},{"dx":2,"dy":-14},{"dx":2,"dy":-23},{"dx":-1,"dy":-13},{"dx":-2,"dy":-13},{"dx":-7,"dy":-22},{"dx":-6,"dy":-17},{"dx":-8,"dy":-12},{"dx":-8,"dy":-9},{"dx":-9,"dy":-10},{"dx":-7,"dy":-8},{"dx":-16,"dy":-17},{"dx":-18,"dy":-14},{"dx":-16,"dy":-11},{"dx":-15,"dy":-11},{"dx":-7,"dy":-4},{"dx":-9,"dy":-3},{"dx":-22,"dy":-4},{"dx":-22,"dy":2},{"dx":-26,"dy":5},{"dx":-31,"dy":12},{"dx":-13,"dy":9},{"dx":-10,"dy":12},{"dx":-11,"dy":20},{"dx":-4,"dy":19},{"dx":-1,"dy":32},{"dx":13,"dy":57},{"dx":12,"dy":33},{"dx":15,"dy":27},{"dx":15,"dy":23},{"dx":6,"dy":12},{"dx":7,"dy":10},{"dx":5,"dy":9},{"dx":3,"dy":9},{"dx":2,"dy":7},{"dx":1,"dy":6},{"dx":0,"dy":4},{"dx":-2,"dy":5},{"dx":-6,"dy":12},{"dx":-6,"dy":11},{"dx":-9,"dy":11},{"dx":-17,"dy":18},{"dx":-11,"dy":11},{"dx":-10,"dy":9},{"dx":-9,"dy":6},{"dx":-6,"dy":3},{"dx":-5,"dy":2},{"dx":-15,"dy":4},{"dx":-9,"dy":0},{"dx":-5,"dy":0},{"dx":-14,"dy":-1},{"dx":-9,"dy":-3},{"dx":-10,"dy":-6},{"dx":-17,"dy":-13},{"dx":-8,"dy":-8},{"dx":-6,"dy":-5},{"dx":-4,"dy":-6},{"dx":-2,"dy":-5},{"dx":-3,"dy":-5},{"dx":-2,"dy":-5},{"dx":-1,"dy":-6},{"dx":0,"dy":-6},{"dx":0,"dy":-6},{"dx":3,"dy":-4},{"dx":8,"dy":-7},{"dx":12,"dy":-6},{"dx":25,"dy":-9},{"dx":21,"dy":-3},{"dx":17,"dy":-4},{"dx":23,"dy":-3},{"dx":16,"dy":-3},{"dx":12,"dy":-3},{"dx":15,"dy":-4},{"dx":5,"dy":-2},{"dx":5,"dy":-2},{"dx":3,"dy":-4},{"dx":3,"dy":-10},{"dx":0,"dy":-21},{"dx":-4,"dy":-18},{"dx":-7,"dy":-17},{"dx":-15,"dy":-21},{"dx":-11,"dy":-11},{"dx":-10,"dy":-11},{"dx":-16,"dy":-10},{"dx":-10,"dy":-6},{"dx":-13,"dy":-4},{"dx":-12,"dy":-3},{"dx":-19,"dy":-1},{"dx":-10,"dy":0},{"dx":-12,"dy":1},{"dx":-19,"dy":7},{"dx":-19,"dy":9},{"dx":-18,"dy":7},{"dx":-19,"dy":11},{"dx":-9,"dy":6},{"dx":-4,"dy":2},{"dx":-13,"dy":13},{"dx":-10,"dy":11},{"dx":-12,"dy":12},{"dx":-18,"dy":23},{"dx":-6,"dy":13},{"dx":-6,"dy":12},{"dx":-5,"dy":17},{"dx":0,"dy":14},{"dx":1,"dy":15},{"dx":6,"dy":18},{"dx":6,"dy":10},{"dx":7,"dy":8},{"dx":12,"dy":10},{"dx":10,"dy":5},{"dx":12,"dy":6},{"dx":16,"dy":8},{"dx":7,"dy":5},{"dx":6,"dy":2},{"dx":5,"dy":3},{"dx":7,"dy":1},{"dx":6,"dy":1},{"dx":9,"dy":3},{"dx":5,"dy":3},{"dx":4,"dy":3},{"dx":3,"dy":6},{"dx":2,"dy":6},{"dx":2,"dy":7},{"dx":2,"dy":10},{"dx":0,"dy":1},{"dx":2,"dy":5},{"dx":1,"dy":6},{"dx":1,"dy":6},{"dx":2,"dy":6},{"dx":6,"dy":6},{"dx":6,"dy":4},{"dx":11,"dy":4},{"dx":18,"dy":1},{"dx":15,"dy":0},{"dx":27,"dy":-2},{"dx":32,"dy":-4},{"dx":20,"dy":-2},{"dx":14,"dy":-3},{"dx":7,"dy":-2},{"dx":8,"dy":-3},{"dx":6,"dy":-1},{"dx":6,"dy":-1},{"dx":4,"dy":-1},{"dx":1,"dy":0},{"dx":0,"dy":0},{"dx":1,"dy":0},{"dx":0,"dy":0},{"dx":5,"dy":2},{"dx":3,"dy":3},{"dx":2,"dy":5},{"dx":2,"dy":5},{"dx":1,"dy":7},{"dx":0,"dy":6},{"dx":-1,"dy":10},{"dx":-3,"dy":5},{"dx":-2,"dy":4},{"dx":-4,"dy":5},{"dx":-5,"dy":2},{"dx":-5,"dy":2},{"dx":-11,"dy":0},{"dx":-11,"dy":-3},{"dx":-11,"dy":-5},{"dx":-16,"dy":-9},{"dx":-9,"dy":-8},{"dx":-8,"dy":-8},{"dx":-11,"dy":-12},{"dx":-5,"dy":-8},{"dx":-2,"dy":-6},{"dx":0,"dy":-6},{"dx":2,"dy":-5},{"dx":8,"dy":-9},{"dx":16,"dy":-13},{"dx":12,"dy":-9},{"dx":12,"dy":-7},{"dx":7,"dy":-4},{"dx":6,"dy":-2},{"dx":8,"dy":-2},{"dx":13,"dy":0},{"dx":6,"dy":1},{"dx":5,"dy":0},{"dx":5,"dy":0},{"dx":4,"dy":0},{"dx":5,"dy":-1},{"dx":8,"dy":-7},{"dx":3,"dy":-8},{"dx":4,"dy":-13},{"dx":2,"dy":-26},{"dx":2,"dy":-18},{"dx":-1,"dy":-25},{"dx":-5,"dy":-33},{"dx":-7,"dy":-21},{"dx":-9,"dy":-21},{"dx":-11,"dy":-21},{"dx":-7,"dy":-13},{"dx":-10,"dy":-12},{"dx":-15,"dy":-16},{"dx":-10,"dy":-9},{"dx":-11,"dy":-9},{"dx":-18,"dy":-13},{"dx":-11,"dy":-9},{"dx":-10,"dy":-8},{"dx":-18,"dy":-12},{"dx":-13,"dy":-8},{"dx":-15,"dy":-6},{"dx":-24,"dy":-10},{"dx":-14,"dy":-5},{"dx":-17,"dy":-4},{"dx":-26,"dy":-3},{"dx":-17,"dy":0},{"dx":-14,"dy":0},{"dx":-12,"dy":1},{"dx":-8,"dy":2},{"dx":-17,"dy":8},{"dx":-17,"dy":11},{"dx":-14,"dy":15},{"dx":-19,"dy":27},{"dx":-24,"dy":44},{"dx":-10,"dy":32},{"dx":-8,"dy":23},{"dx":-4,"dy":32},{"dx":0,"dy":17},{"dx":2,"dy":20},{"dx":9,"dy":33},{"dx":9,"dy":22},{"dx":7,"dy":16},{"dx":10,"dy":17},{"dx":6,"dy":8},{"dx":11,"dy":6},{"dx":17,"dy":8},{"dx":10,"dy":6},{"dx":8,"dy":6},{"dx":12,"dy":8},{"dx":5,"dy":4},{"dx":4,"dy":2},{"dx":4,"dy":3},{"dx":0,"dy":0},{"dx":1,"dy":1},{"dx":1,"dy":0},{"dx":0,"dy":0},{"dx":0,"dy":0},{"dx":-1,"dy":4},{"dx":-11,"dy":8},{"dx":-11,"dy":8},{"dx":-21,"dy":9},{"dx":-14,"dy":5},{"dx":-14,"dy":6},{"dx":-23,"dy":4},{"dx":-12,"dy":2},{"dx":-11,"dy":2},{"dx":-18,"dy":3},{"dx":-11,"dy":2},{"dx":-11,"dy":2},{"dx":-20,"dy":0},{"dx":-12,"dy":0},{"dx":-12,"dy":-3},{"dx":-20,"dy":-5},{"dx":-13,"dy":-7},{"dx":-11,"dy":-9},{"dx":-12,"dy":-16},{"dx":-6,"dy":-16},{"dx":-3,"dy":-15},{"dx":-3,"dy":-21},{"dx":-2,"dy":-16},{"dx":-1,"dy":-15},{"dx":0,"dy":-29},{"dx":0,"dy":-21},{"dx":0,"dy":-18},{"dx":0,"dy":-24},{"dx":0,"dy":-11},{"dx":0,"dy":-9},{"dx":1,"dy":-8},{"dx":3,"dy":-7},{"dx":0,"dy":-6},{"dx":0,"dy":0},{"dx":0,"dy":0},{"dx":0,"dy":0},{"dx":0,"dy":0},{"dx":0,"dy":0},{"dx":0,"dy":0},{"dx":0,"dy":0},{"dx":0,"dy":0},{"dx":0,"dy":0},{"dx":0,"dy":0},{"dx":0,"dy":0},{"dx":0,"dy":0},{"dx":0,"dy":0},{"dx":0,"dy":0},{"dx":0,"dy":0},{"dx":0,"dy":0},{"dx":0,"dy":0},{"dx":0,"dy":0},{"dx":-3,"dy":-8},{"dx":-19,"dy":-31},{"dx":-11,"dy":-24},{"dx":-6,"dy":-16},{"dx":-6,"dy":-18},{"dx":-3,"dy":-13},{"dx":-1,"dy":-13},{"dx":3,"dy":-21},{"dx":2,"dy":-12},{"dx":2,"dy":-6},{"dx":2,"dy":-10},{"dx":3,"dy":-3},{"dx":0,"dy":-1},{"dx":17,"dy":-5},{"dx":14,"dy":-3},{"dx":17,"dy":-3},{"dx":21,"dy":-4},{"dx":8,"dy":-2},{"dx":6,"dy":-1},{"dx":16,"dy":-3},{"dx":11,"dy":-3},{"dx":5,"dy":-1},{"dx":10,"dy":-6},{"dx":0,"dy":0},{"dx":1,"dy":-1},{"dx":1,"dy":-1},{"dx":1,"dy":-1},{"dx":9,"dy":-13},{"dx":6,"dy":-13},{"dx":5,"dy":-12},{"dx":2,"dy":-9},{"dx":2,"dy":-10},{"dx":-1,"dy":-6},{"dx":-7,"dy":-10},{"dx":-19,"dy":-11},{"dx":-15,"dy":-6},{"dx":-11,"dy":-5},{"dx":-20,"dy":-4},{"dx":-14,"dy":-1},{"dx":-18,"dy":2},{"dx":-29,"dy":7},{"dx":-13,"dy":5},{"dx":-11,"dy":7},{"dx":-12,"dy":10},{"dx":-9,"dy":7},{"dx":-6,"dy":6},{"dx":-4,"dy":5},{"dx":-3,"dy":5},{"dx":-2,"dy":5},{"dx":-3,"dy":11},{"dx":0,"dy":8},{"dx":0,"dy":9},{"dx":0,"dy":7},{"dx":0,"dy":6},{"dx":0,"dy":5},{"dx":1,"dy":12},{"dx":2,"dy":8},{"dx":2,"dy":8},{"dx":5,"dy":15},{"dx":4,"dy":11},{"dx":2,"dy":12},{"dx":7,"dy":17}],"trial_type":"plugin-moving-dots-2","trial_index":20,"plugin_version":"0.0.1","time_elapsed":117093},{"task":"fixation","rt":3997,"stimulus":"<div style=\"font-size:60px;\">+</div>","response":" ","trial_type":"html-keyboard-response","trial_index":21,"plugin_version":"2.1.0","time_elapsed":121092},{"task":"movingdots","control_change":0,"mouse_data":[{"dx":0,"dy":0},{"dx":0,"dy":0},{"dx":0,"dy":0},{"dx":0,"dy":0},{"dx":0,"dy":0},{"dx":0,"dy":0},{"dx":0,"dy":0},{"dx":0,"dy":0},{"dx":0,"dy":0},{"dx":0,"dy":0},{"dx":0,"dy":0},{"dx":0,"dy":0},{"dx":0,"dy":0},{"dx":0,"dy":0},{"dx":0,"dy":0},{"dx":0,"dy":0},{"dx":0,"dy":0},{"dx":0,"dy":0},{"dx":0,"dy":0},{"dx":0,"dy":0},{"dx":0,"dy":0},{"dx":0,"dy":0},{"dx":0,"dy":0},{"dx":0,"dy":0},{"dx":0,"dy":0},{"dx":0,"dy":0},{"dx":0,"dy":0},{"dx":0,"dy":0},{"dx":0,"dy":0},{"dx":0,"dy":0},{"dx":0,"dy":0},{"dx":0,"dy":0},{"dx":0,"dy":0},{"dx":0,"dy":0},{"dx":0,"dy":0},{"dx":3,"dy":0},{"dx":4,"dy":0},{"dx":4,"dy":0},{"dx":9,"dy":0},{"dx":4,"dy":-1},{"dx":5,"dy":-1},{"dx":5,"dy":-2},{"dx":3,"dy":-1},{"dx":4,"dy":-2},{"dx":9,"dy":-5},{"dx":4,"dy":-3},{"dx":4,"dy":-4},{"dx":2,"dy":-4},{"dx":3,"dy":-4},{"dx":3,"dy":-5},{"dx":2,"dy":-6},{"dx":2,"dy":-5},{"dx":3,"dy":-5},{"dx":5,"dy":-11},{"dx":3,"dy":-8},{"dx":3,"dy":-11},{"dx":1,"dy":-17},{"dx":-2,"dy":-13},{"dx":-6,"dy":-18},{"dx":-14,"dy":-24},{"dx":-10,"dy":-11},{"dx":-11,"dy":-10},{"dx":-19,"dy":-14},{"dx":-13,"dy":-9},{"dx":-13,"dy":-7},{"dx":-11,"dy":-3},{"dx":-8,"dy":-1},{"dx":-6,"dy":0},{"dx":-9,"dy":0},{"dx":-2,"dy":0},{"dx":-4,"dy":2},{"dx":-6,"dy":8},{"dx":-3,"dy":4},{"dx":-3,"dy":4},{"dx":-2,"dy":5},{"dx":0,"dy":1},{"dx":-1,"dy":5},{"dx":-1,"dy":5},{"dx":0,"dy":6},{"dx":0,"dy":6},{"dx":0,"dy":6},{"dx":0,"dy":6},{"dx":1,"dy":5},{"dx":0,"dy":5},{"dx":0,"dy":2},{"dx":0,"dy":5},{"dx":-3,"dy":7},{"dx":-3,"dy":5},{"dx":-5,"dy":6},{"dx":-13,"dy":10},{"dx":-9,"dy":4},{"dx":-11,"dy":5},{"dx":-18,"dy":5},{"dx":-11,"dy":2},{"dx":-10,"dy":2},{"dx":-12,"dy":0},{"dx":-19,"dy":-5},{"dx":-11,"dy":-3},{"dx":-10,"dy":-3},{"dx":-14,"dy":-6},{"dx":-9,"dy":-6},{"dx":-9,"dy":-8},{"dx":-13,"dy":-11},{"dx":-5,"dy":-6},{"dx":-4,"dy":-7},{"dx":-3,"dy":-14},{"dx":0,"dy":-6},{"dx":0,"dy":-11},{"dx":7,"dy":-17},{"dx":6,"dy":-10},{"dx":7,"dy":-9},{"dx":16,"dy":-11},{"dx":11,"dy":-6},{"dx":15,"dy":-3},{"dx":23,"dy":-5},{"dx":10,"dy":-1},{"dx":13,"dy":-1},{"dx":23,"dy":3},{"dx":18,"dy":7},{"dx":30,"dy":10},{"dx":13,"dy":7},{"dx":13,"dy":6},{"dx":19,"dy":7},{"dx":27,"dy":16},{"dx":17,"dy":9},{"dx":14,"dy":6},{"dx":23,"dy":6},{"dx":21,"dy":5},{"dx":18,"dy":3},{"dx":30,"dy":4},{"dx":13,"dy":0},{"dx":13,"dy":-1},{"dx":23,"dy":-2},{"dx":12,"dy":-3},{"dx":14,"dy":-3},{"dx":23,"dy":-4},{"dx":11,"dy":-3},{"dx":9,"dy":-5},{"dx":14,"dy":-5},{"dx":9,"dy":-3},{"dx":5,"dy":-3},{"dx":5,"dy":-4},{"dx":4,"dy":-5},{"dx":4,"dy":-7},{"dx":3,"dy":-13},{"dx":0,"dy":-7},{"dx":0,"dy":-6},{"dx":-2,"dy":-7},{"dx":-2,"dy":-8},{"dx":-3,"dy":-8},{"dx":-16,"dy":-15},{"dx":-14,"dy":-7},{"dx":-10,"dy":-5},{"dx":-20,"dy":-4},{"dx":-12,"dy":0},{"dx":-5,"dy":0},{"dx":-9,"dy":5},{"dx":-1,"dy":5},{"dx":1,"dy":10},{"dx":14,"dy":26},{"dx":17,"dy":22},{"dx":15,"dy":27},{"dx":19,"dy":39},{"dx":11,"dy":31},{"dx":8,"dy":24},{"dx":2,"dy":28},{"dx":-3,"dy":15},{"dx":-4,"dy":13},{"dx":-8,"dy":17},{"dx":-5,"dy":13},{"dx":-8,"dy":13},{"dx":-16,"dy":16},{"dx":-14,"dy":11},{"dx":-12,"dy":10},{"dx":-17,"dy":12},{"dx":-9,"dy":8},{"dx":-4,"dy":4},{"dx":-10,"dy":6},{"dx":-7,"dy":2},{"dx":-11,"dy":1},{"dx":-18,"dy":1},{"dx":-17,"dy":1},{"dx":-16,"dy":0},{"dx":-36,"dy":-2},{"dx":-25,"dy":-4},{"dx":-26,"dy":-9},{"dx":-34,"dy":-11},{"dx":-21,"dy":-7},{"dx":-19,"dy":-4},{"dx":-28,"dy":-6},{"dx":-23,"dy":-8},{"dx":-19,"dy":-8},{"dx":-22,"dy":-10},{"dx":-9,"dy":-4},{"dx":-7,"dy":-5},{"dx":-8,"dy":-3},{"dx":-8,"dy":-2},{"dx":-8,"dy":-1},{"dx":-12,"dy":0},{"dx":-6,"dy":0},{"dx":-6,"dy":2},{"dx":-9,"dy":7},{"dx":-8,"dy":11},{"dx":-9,"dy":19},{"dx":-9,"dy":23},{"dx":-4,"dy":14},{"dx":-1,"dy":23},{"dx":0,"dy":13},{"dx":5,"dy":14},{"dx":11,"dy":22},{"dx":9,"dy":11},{"dx":9,"dy":10},{"dx":15,"dy":8},{"dx":28,"dy":4},{"dx":33,"dy":-6},{"dx":36,"dy":-10},{"dx":74,"dy":-26},{"dx":48,"dy":-12},{"dx":42,"dy":-7},{"dx":54,"dy":-7},{"dx":28,"dy":-1},{"dx":21,"dy":-2},{"dx":22,"dy":-3},{"dx":13,"dy":-4},{"dx":10,"dy":-5},{"dx":15,"dy":-10},{"dx":11,"dy":-10},{"dx":11,"dy":-13},{"dx":21,"dy":-28},{"dx":9,"dy":-21},{"dx":6,"dy":-13},{"dx":3,"dy":-17},{"dx":0,"dy":-18},{"dx":-3,"dy":-15},{"dx":-10,"dy":-35},{"dx":-7,"dy":-21},{"dx":-6,"dy":-13},{"dx":-10,"dy":-22},{"dx":-5,"dy":-16},{"dx":-3,"dy":-10},{"dx":-1,"dy":-9},{"dx":2,"dy":-6},{"dx":2,"dy":-4},{"dx":5,"dy":-4},{"dx":0,"dy":0},{"dx":0,"dy":-1},{"dx":0,"dy":0},{"dx":0,"dy":0},{"dx":0,"dy":0},{"dx":0,"dy":0},{"dx":0,"dy":0},{"dx":0,"dy":0},{"dx":0,"dy":0},{"dx":0,"dy":0},{"dx":0,"dy":0},{"dx":0,"dy":0},{"dx":0,"dy":0},{"dx":0,"dy":0},{"dx":4,"dy":0},{"dx":23,"dy":0},{"dx":17,"dy":0},{"dx":26,"dy":4},{"dx":13,"dy":1},{"dx":5,"dy":1},{"dx":13,"dy":4},{"dx":4,"dy":5},{"dx":6,"dy":6},{"dx":8,"dy":13},{"dx":6,"dy":13},{"dx":4,"dy":14},{"dx":7,"dy":19},{"dx":4,"dy":14},{"dx":2,"dy":14},{"dx":3,"dy":18},{"dx":2,"dy":13},{"dx":1,"dy":13},{"dx":1,"dy":18},{"dx":0,"dy":9},{"dx":-2,"dy":9},{"dx":-1,"dy":7},{"dx":0,"dy":6},{"dx":-3,"dy":6},{"dx":-4,"dy":3},{"dx":-10,"dy":0},{"dx":-13,"dy":-4},{"dx":-26,"dy":-5},{"dx":-16,"dy":-1},{"dx":-25,"dy":2},{"dx":-44,"dy":12},{"dx":-27,"dy":9},{"dx":-11,"dy":6},{"dx":-7,"dy":4},{"dx":-4,"dy":4},{"dx":-3,"dy":6},{"dx":-1,"dy":16},{"dx":6,"dy":10},{"dx":9,"dy":10},{"dx":14,"dy":16},{"dx":11,"dy":10},{"dx":11,"dy":8},{"dx":13,"dy":11},{"dx":8,"dy":5},{"dx":9,"dy":3},{"dx":16,"dy":1},{"dx":11,"dy":-2},{"dx":17,"dy":-9},{"dx":23,"dy":-17},{"dx":10,"dy":-10},{"dx":8,"dy":-9},{"dx":9,"dy":-14},{"dx":4,"dy":-13},{"dx":3,"dy":-11},{"dx":3,"dy":-21},{"dx":0,"dy":-13},{"dx":-1,"dy":-7},{"dx":-2,"dy":-16},{"dx":-2,"dy":-12},{"dx":-2,"dy":-17},{"dx":-2,"dy":-21},{"dx":-1,"dy":-13},{"dx":-2,"dy":-14},{"dx":-6,"dy":-17},{"dx":-8,"dy":-13},{"dx":-13,"dy":-24},{"dx":-20,"dy":-30},{"dx":-14,"dy":-16},{"dx":-16,"dy":-15},{"dx":-17,"dy":-16},{"dx":-23,"dy":-14},{"dx":-22,"dy":-7},{"dx":-35,"dy":-13},{"dx":-14,"dy":-3},{"dx":-14,"dy":-2},{"dx":-27,"dy":-2},{"dx":-21,"dy":0},{"dx":-24,"dy":1},{"dx":-23,"dy":4},{"dx":-13,"dy":3},{"dx":-13,"dy":5},{"dx":-17,"dy":9},{"dx":-12,"dy":11},{"dx":-11,"dy":13},{"dx":-11,"dy":16},{"dx":-7,"dy":10},{"dx":-4,"dy":7},{"dx":-4,"dy":6},{"dx":-2,"dy":5},{"dx":-2,"dy":5},{"dx":-7,"dy":19},{"dx":-6,"dy":16},{"dx":-6,"dy":14},{"dx":-6,"dy":16},{"dx":-5,"dy":8},{"dx":-3,"dy":7},{"dx":-3,"dy":8},{"dx":-4,"dy":9},{"dx":-3,"dy":13},{"dx":-4,"dy":19},{"dx":-3,"dy":12},{"dx":-1,"dy":9},{"dx":-2,"dy":8},{"dx":0,"dy":5},{"dx":-1,"dy":6},{"dx":0,"dy":1},{"dx":-1,"dy":5},{"dx":0,"dy":0},{"dx":0,"dy":1},{"dx":-1,"dy":2},{"dx":0,"dy":0},{"dx":0,"dy":0},{"dx":0,"dy":0},{"dx":0,"dy":0},{"dx":-1,"dy":0},{"dx":0,"dy":-1},{"dx":0,"dy":0},{"dx":0,"dy":0},{"dx":0,"dy":0},{"dx":0,"dy":0},{"dx":0,"dy":0},{"dx":0,"dy":0},{"dx":0,"dy":0},{"dx":0,"dy":0},{"dx":0,"dy":0},{"dx":9,"dy":-3},{"dx":11,"dy":-3},{"dx":12,"dy":0},{"dx":13,"dy":0},{"dx":21,"dy":0},{"dx":17,"dy":1},{"dx":14,"dy":2},{"dx":22,"dy":2},{"dx":16,"dy":4},{"dx":18,"dy":6},{"dx":29,"dy":10},{"dx":13,"dy":7},{"dx":10,"dy":6},{"dx":8,"dy":7},{"dx":1,"dy":1},{"dx":3,"dy":3},{"dx":0,"dy":0},{"dx":0,"dy":0},{"dx":0,"dy":0},{"dx":0,"dy":0},{"dx":0,"dy":0},{"dx":-4,"dy":-13},{"dx":-14,"dy":-30},{"dx":-12,"dy":-26},{"dx":-9,"dy":-17},{"dx":-11,"dy":-16},{"dx":-9,"dy":-7},{"dx":-10,"dy":-4},{"dx":-17,"dy":-2},{"dx":-8,"dy":1},{"dx":-6,"dy":1},{"dx":-5,"dy":2},{"dx":-4,"dy":3},{"dx":-10,"dy":5},{"dx":-15,"dy":9},{"dx":-3,"dy":3},{"dx":-6,"dy":3},{"dx":-6,"dy":7},{"dx":-4,"dy":5},{"dx":-3,"dy":6},{"dx":-3,"dy":6},{"dx":-3,"dy":7},{"dx":-3,"dy":8},{"dx":-2,"dy":14},{"dx":0,"dy":8},{"dx":5,"dy":5},{"dx":16,"dy":10},{"dx":0,"dy":0},{"dx":6,"dy":2},{"dx":0,"dy":0},{"dx":0,"dy":0},{"dx":0,"dy":0},{"dx":0,"dy":0},{"dx":0,"dy":0},{"dx":0,"dy":0},{"dx":0,"dy":0},{"dx":0,"dy":0},{"dx":0,"dy":0},{"dx":0,"dy":0},{"dx":0,"dy":0},{"dx":0,"dy":0},{"dx":-8,"dy":-4},{"dx":-25,"dy":-14},{"dx":-25,"dy":-14},{"dx":-29,"dy":-15},{"dx":-15,"dy":-9},{"dx":-15,"dy":-7},{"dx":-18,"dy":-12},{"dx":-9,"dy":-7},{"dx":-5,"dy":-3}],"trial_type":"plugin-moving-dots-2","trial_index":22,"plugin_version":"0.0.1","time_elapsed":128611},{"task":"fixation","rt":3168,"stimulus":"<div style=\"font-size:60px;\">+</div>","response":" ","trial_type":"html-keyboard-response","trial_index":23,"plugin_version":"2.1.0","time_elapsed":131780},{"task":"movingdots","control_change":0,"mouse_data":[{"dx":0,"dy":0},{"dx":0,"dy":0},{"dx":0,"dy":0},{"dx":0,"dy":0},{"dx":0,"dy":0},{"dx":0,"dy":0},{"dx":0,"dy":0},{"dx":0,"dy":0},{"dx":0,"dy":0},{"dx":0,"dy":0},{"dx":0,"dy":0},{"dx":0,"dy":0},{"dx":0,"dy":0},{"dx":0,"dy":0},{"dx":0,"dy":0},{"dx":0,"dy":0},{"dx":0,"dy":0},{"dx":0,"dy":0},{"dx":0,"dy":0},{"dx":0,"dy":0},{"dx":0,"dy":0},{"dx":0,"dy":0},{"dx":0,"dy":0},{"dx":0,"dy":0},{"dx":18,"dy":-8},{"dx":14,"dy":-7},{"dx":15,"dy":-8},{"dx":27,"dy":-8},{"dx":16,"dy":-4},{"dx":21,"dy":-4},{"dx":22,"dy":-2},{"dx":15,"dy":0},{"dx":15,"dy":0},{"dx":17,"dy":4},{"dx":9,"dy":1},{"dx":12,"dy":0},{"dx":16,"dy":-2},{"dx":12,"dy":-5},{"dx":13,"dy":-6},{"dx":19,"dy":-14},{"dx":7,"dy":-9},{"dx":5,"dy":-11},{"dx":4,"dy":-21},{"dx":0,"dy":-6},{"dx":-1,"dy":-20},{"dx":-3,"dy":-13},{"dx":-4,"dy":-17},{"dx":-8,"dy":-18},{"dx":-7,"dy":-12},{"dx":-9,"dy":-13},{"dx":-10,"dy":-13},{"dx":-15,"dy":-16},{"dx":-10,"dy":-9},{"dx":-11,"dy":-9},{"dx":-16,"dy":-11},{"dx":-19,"dy":-9},{"dx":-25,"dy":-7},{"dx":-33,"dy":-4},{"dx":-18,"dy":-1},{"dx":-17,"dy":1},{"dx":-26,"dy":9},{"dx":-18,"dy":9},{"dx":-19,"dy":11},{"dx":-22,"dy":14},{"dx":-13,"dy":11},{"dx":-12,"dy":10},{"dx":-9,"dy":8},{"dx":-4,"dy":7},{"dx":-4,"dy":6},{"dx":1,"dy":19},{"dx":6,"dy":14},{"dx":12,"dy":20},{"dx":22,"dy":37},{"dx":11,"dy":23},{"dx":11,"dy":19},{"dx":9,"dy":23},{"dx":1,"dy":6},{"dx":0,"dy":9},{"dx":-7,"dy":12},{"dx":-12,"dy":6},{"dx":-15,"dy":5},{"dx":-30,"dy":7},{"dx":-18,"dy":1},{"dx":-15,"dy":0},{"dx":-22,"dy":-4},{"dx":-13,"dy":-3},{"dx":-6,"dy":-2},{"dx":-8,"dy":-3},{"dx":-11,"dy":-7},{"dx":-9,"dy":-8},{"dx":-11,"dy":-14},{"dx":-5,"dy":-11},{"dx":-5,"dy":-13},{"dx":-6,"dy":-23},{"dx":-1,"dy":-12},{"dx":0,"dy":-12},{"dx":4,"dy":-16},{"dx":6,"dy":-12},{"dx":7,"dy":-12},{"dx":12,"dy":-18},{"dx":10,"dy":-10},{"dx":9,"dy":-9},{"dx":15,"dy":-13},{"dx":7,"dy":-6},{"dx":9,"dy":-5},{"dx":15,"dy":-6},{"dx":12,"dy":-5},{"dx":9,"dy":-3},{"dx":18,"dy":-2},{"dx":11,"dy":0},{"dx":13,"dy":1},{"dx":22,"dy":7},{"dx":25,"dy":13},{"dx":32,"dy":18},{"dx":42,"dy":24},{"dx":24,"dy":11},{"dx":18,"dy":9},{"dx":23,"dy":13},{"dx":24,"dy":13},{"dx":14,"dy":9},{"dx":18,"dy":11},{"dx":13,"dy":4},{"dx":11,"dy":3},{"dx":17,"dy":6},{"dx":15,"dy":6},{"dx":14,"dy":3},{"dx":18,"dy":1},{"dx":17,"dy":-3},{"dx":14,"dy":-4},{"dx":19,"dy":-16},{"dx":13,"dy":-20},{"dx":5,"dy":-16},{"dx":-1,"dy":-28},{"dx":-6,"dy":-17},{"dx":-6,"dy":-13},{"dx":-9,"dy":-13},{"dx":-6,"dy":-4},{"dx":-12,"dy":-6},{"dx":-25,"dy":-7},{"dx":-17,"dy":-3},{"dx":-16,"dy":0},{"dx":-23,"dy":0},{"dx":-12,"dy":1},{"dx":-12,"dy":3},{"dx":-20,"dy":8},{"dx":-10,"dy":6},{"dx":-7,"dy":8},{"dx":-10,"dy":17},{"dx":-4,"dy":17},{"dx":0,"dy":13},{"dx":4,"dy":20},{"dx":9,"dy":13},{"dx":15,"dy":15},{"dx":38,"dy":28},{"dx":21,"dy":16},{"dx":17,"dy":14},{"dx":20,"dy":14},{"dx":9,"dy":6},{"dx":5,"dy":4},{"dx":4,"dy":5},{"dx":2,"dy":3},{"dx":1,"dy":6},{"dx":-1,"dy":6},{"dx":-4,"dy":7},{"dx":-3,"dy":6},{"dx":-5,"dy":11},{"dx":-3,"dy":7},{"dx":-3,"dy":6},{"dx":-9,"dy":13},{"dx":-8,"dy":7},{"dx":-9,"dy":5},{"dx":-6,"dy":4},{"dx":-6,"dy":1},{"dx":-5,"dy":0},{"dx":-18,"dy":-3},{"dx":-14,"dy":-2},{"dx":-14,"dy":-2},{"dx":-21,"dy":-2},{"dx":-10,"dy":-2},{"dx":-11,"dy":-3},{"dx":-11,"dy":-6},{"dx":-16,"dy":-8},{"dx":-8,"dy":-3},{"dx":-4,"dy":-1},{"dx":-4,"dy":-2},{"dx":-5,"dy":-2},{"dx":-7,"dy":-3},{"dx":-12,"dy":-5},{"dx":-5,"dy":-2},{"dx":-6,"dy":-2},{"dx":-15,"dy":-7},{"dx":-14,"dy":-6},{"dx":-14,"dy":-6},{"dx":-23,"dy":-10},{"dx":-14,"dy":-6},{"dx":-14,"dy":-7},{"dx":-22,"dy":-10},{"dx":-11,"dy":-4},{"dx":-12,"dy":-3},{"dx":-15,"dy":-6},{"dx":-10,"dy":-3},{"dx":-8,"dy":-2},{"dx":-9,"dy":-1},{"dx":-7,"dy":-2},{"dx":-4,"dy":0},{"dx":-1,"dy":0},{"dx":-1,"dy":-1},{"dx":0,"dy":0},{"dx":0,"dy":0},{"dx":0,"dy":0},{"dx":0,"dy":0},{"dx":0,"dy":0},{"dx":0,"dy":0},{"dx":0,"dy":0},{"dx":0,"dy":0},{"dx":0,"dy":0},{"dx":0,"dy":0},{"dx":0,"dy":0},{"dx":0,"dy":0},{"dx":0,"dy":0},{"dx":0,"dy":0},{"dx":0,"dy":0},{"dx":-1,"dy":0},{"dx":-13,"dy":-6},{"dx":-8,"dy":-6},{"dx":-7,"dy":-8},{"dx":-10,"dy":-12},{"dx":-5,"dy":-5},{"dx":-5,"dy":-8},{"dx":-8,"dy":-11},{"dx":-4,"dy":-6},{"dx":-3,"dy":-7},{"dx":-1,"dy":-7},{"dx":0,"dy":-6},{"dx":4,"dy":-9},{"dx":4,"dy":-4},{"dx":5,"dy":-4},{"dx":5,"dy":-6},{"dx":4,"dy":-5},{"dx":4,"dy":-4},{"dx":2,"dy":-6},{"dx":1,"dy":-11},{"dx":-2,"dy":-6},{"dx":-6,"dy":-6},{"dx":-15,"dy":-10},{"dx":-15,"dy":-7},{"dx":-21,"dy":-8},{"dx":-32,"dy":-8},{"dx":-19,"dy":-2},{"dx":-14,"dy":-1},{"dx":-17,"dy":2},{"dx":-12,"dy":4},{"dx":-10,"dy":7},{"dx":-17,"dy":14},{"dx":-9,"dy":14},{"dx":-8,"dy":14},{"dx":-5,"dy":24},{"dx":0,"dy":16},{"dx":5,"dy":17},{"dx":15,"dy":28},{"dx":20,"dy":22},{"dx":25,"dy":22},{"dx":56,"dy":33},{"dx":41,"dy":23},{"dx":38,"dy":20},{"dx":51,"dy":21},{"dx":28,"dy":8},{"dx":34,"dy":4},{"dx":40,"dy":2},{"dx":24,"dy":0},{"dx":17,"dy":-4},{"dx":25,"dy":-8},{"dx":11,"dy":-6},{"dx":6,"dy":-3},{"dx":6,"dy":-3},{"dx":4,"dy":-1},{"dx":5,"dy":0},{"dx":4,"dy":1},{"dx":5,"dy":3},{"dx":3,"dy":3},{"dx":5,"dy":9},{"dx":1,"dy":7},{"dx":0,"dy":4},{"dx":-2,"dy":8},{"dx":-4,"dy":7},{"dx":-6,"dy":7},{"dx":-12,"dy":14},{"dx":-10,"dy":7},{"dx":-13,"dy":8},{"dx":-20,"dy":11},{"dx":-21,"dy":6},{"dx":-17,"dy":4},{"dx":-29,"dy":2},{"dx":-17,"dy":1},{"dx":-21,"dy":-1},{"dx":-45,"dy":-16},{"dx":-34,"dy":-15},{"dx":-26,"dy":-17},{"dx":-29,"dy":-25},{"dx":-12,"dy":-11},{"dx":-12,"dy":-17},{"dx":-15,"dy":-35},{"dx":-6,"dy":-15},{"dx":-4,"dy":-14},{"dx":-1,"dy":-15},{"dx":0,"dy":-7},{"dx":2,"dy":-5},{"dx":2,"dy":-5},{"dx":10,"dy":-7},{"dx":14,"dy":-4},{"dx":21,"dy":-3},{"dx":17,"dy":0},{"dx":16,"dy":1},{"dx":29,"dy":8},{"dx":19,"dy":10},{"dx":15,"dy":7},{"dx":18,"dy":10},{"dx":12,"dy":5},{"dx":7,"dy":5},{"dx":13,"dy":5},{"dx":12,"dy":6},{"dx":10,"dy":5},{"dx":11,"dy":5},{"dx":11,"dy":5},{"dx":10,"dy":2},{"dx":15,"dy":2},{"dx":10,"dy":2},{"dx":9,"dy":1},{"dx":15,"dy":1},{"dx":9,"dy":0},{"dx":6,"dy":-2},{"dx":21,"dy":-2},{"dx":13,"dy":-3},{"dx":5,"dy":0},{"dx":12,"dy":-3},{"dx":9,"dy":-3},{"dx":9,"dy":-4},{"dx":15,"dy":-7},{"dx":5,"dy":-3},{"dx":5,"dy":-4},{"dx":5,"dy":-3},{"dx":5,"dy":-3},{"dx":6,"dy":-5},{"dx":15,"dy":-10},{"dx":8,"dy":-5},{"dx":10,"dy":-5},{"dx":12,"dy":-9},{"dx":8,"dy":-7},{"dx":9,"dy":-11},{"dx":9,"dy":-12},{"dx":3,"dy":-8},{"dx":1,"dy":-9},{"dx":-2,"dy":-17},{"dx":-5,"dy":-9},{"dx":-7,"dy":-7},{"dx":-17,"dy":-10},{"dx":-17,"dy":-7},{"dx":-20,"dy":-5},{"dx":-24,"dy":-4},{"dx":-17,"dy":-1},{"dx":-15,"dy":0},{"dx":-17,"dy":2},{"dx":-7,"dy":4},{"dx":-7,"dy":5},{"dx":-4,"dy":5},{"dx":-6,"dy":13},{"dx":-2,"dy":13},{"dx":0,"dy":23},{"dx":4,"dy":24},{"dx":5,"dy":24},{"dx":7,"dy":23},{"dx":5,"dy":8},{"dx":7,"dy":9},{"dx":12,"dy":10},{"dx":10,"dy":5},{"dx":6,"dy":6},{"dx":7,"dy":6},{"dx":10,"dy":9},{"dx":6,"dy":6},{"dx":10,"dy":13},{"dx":7,"dy":8},{"dx":5,"dy":8},{"dx":9,"dy":16},{"dx":7,"dy":11},{"dx":4,"dy":6},{"dx":4,"dy":15},{"dx":-1,"dy":7},{"dx":-5,"dy":8},{"dx":-13,"dy":12},{"dx":-12,"dy":7},{"dx":-12,"dy":6},{"dx":-9,"dy":5},{"dx":-12,"dy":7},{"dx":-9,"dy":5},{"dx":-18,"dy":5},{"dx":-10,"dy":2},{"dx":-18,"dy":0},{"dx":-33,"dy":0},{"dx":-25,"dy":0},{"dx":-17,"dy":-1},{"dx":-31,"dy":-6},{"dx":-17,"dy":-7},{"dx":-22,"dy":-13},{"dx":-37,"dy":-41},{"dx":-20,"dy":-36},{"dx":-17,"dy":-37},{"dx":-11,"dy":-30},{"dx":-3,"dy":-12},{"dx":-2,"dy":-13},{"dx":1,"dy":-9},{"dx":4,"dy":-14},{"dx":9,"dy":-11},{"dx":35,"dy":-26},{"dx":23,"dy":-9},{"dx":27,"dy":-7},{"dx":21,"dy":-5},{"dx":13,"dy":-2},{"dx":15,"dy":-2},{"dx":11,"dy":0},{"dx":12,"dy":0},{"dx":7,"dy":0},{"dx":8,"dy":1},{"dx":6,"dy":1},{"dx":5,"dy":3},{"dx":8,"dy":6},{"dx":4,"dy":3},{"dx":3,"dy":4},{"dx":1,"dy":6},{"dx":0,"dy":6},{"dx":-4,"dy":12},{"dx":-5,"dy":11},{"dx":-6,"dy":14},{"dx":-5,"dy":8},{"dx":-4,"dy":5},{"dx":-3,"dy":3},{"dx":-5,"dy":2},{"dx":-5,"dy":3},{"dx":-8,"dy":4},{"dx":-1,"dy":0},{"dx":-5,"dy":2},{"dx":-10,"dy":0},{"dx":-5,"dy":0},{"dx":-6,"dy":-1},{"dx":-5,"dy":-2},{"