[{"success":true,"rt":55973,"trial_type":"fullscreen","trial_index":0,"plugin_version":"2.1.0","time_elapsed":57025},{"task":"fixation","rt":4598,"stimulus":"<div style=\"font-size:60px;\">+</div>","response":" ","trial_type":"html-keyboard-response","trial_index":1,"plugin_version":"2.1.0","time_elapsed":61626},{"task":"movingdots","control_change":0,"mouse_data":[{"dx":0,"dy":0},{"dx":0,"dy":0},{"dx":0,"dy":0},{"dx":0,"dy":0},{"dx":0,"dy":0},{"dx":0,"dy":0},{"dx":0,"dy":0},{"dx":0,"dy":0},{"dx":0,"dy":0},{"dx":0,"dy":0},{"dx":0,"dy":0},{"dx":0,"dy":0},{"dx":0,"dy":0},{"dx":0,"dy":0},{"dx":0,"dy":0},{"dx":0,"dy":0},{"dx":0,"dy":0},{"dx":0,"dy":0},{"dx":0,"dy":0},{"dx":0,"dy":0},{"dx":0,"dy":0},{"dx":0,"dy":0},{"dx":0,"dy":0},{"dx":0,"dy":0},{"dx":0,"dy":0},{"dx":0,"dy":0},{"dx":0,"dy":0},{"dx":0,"dy":0},{"dx":0,"dy":0},{"dx":0,"dy":0},{"dx":0,"dy":0},{"dx":0,"dy":0},{"dx":0,"dy":0},{"dx":0,"dy":0},{"dx":0,"dy":0},{"dx":0,"dy":0},{"dx":0,"dy":0},{"dx":0,"dy":0},{"dx":0,"dy":0},{"dx":0,"dy":0},{"dx":0,"dy":0},{"dx":0,"dy":-1},{"dx":-5,"dy":-2},{"dx":-6,"dy":0},{"dx":-4,"dy":-2},{"dx":-13,"dy":-4},{"dx":-6,"dy":-3},{"dx":-6,"dy":-4},{"dx":-5,"dy":-4},{"dx":-4,"dy":-5},{"dx":-2,"dy":-4},{"dx":-3,"dy":-5},{"dx":0,"dy":-2},{"dx":-1,"dy":-2},{"dx":0,"dy":-2},{"dx":0,"dy":-1},{"dx":2,"dy":-5},{"dx":9,"dy":-6},{"dx":16,"dy":-11},{"dx":14,"dy":-7},{"dx":15,"dy":-9},{"dx":28,"dy":-15},{"dx":19,"dy":-8},{"dx":12,"dy":-4},{"dx":7,"dy":-1},{"dx":7,"dy":0},{"dx":7,"dy":1},{"dx":11,"dy":3},{"dx":5,"dy":0},{"dx":0,"dy":0},{"dx":5,"dy":0},{"dx":1,"dy":0},{"dx":1,"dy":0},{"dx":5,"dy":2},{"dx":1,"dy":0},{"dx":3,"dy":2},{"dx":5,"dy":2},{"dx":5,"dy":3},{"dx":6,"dy":4},{"dx":16,"dy":13},{"dx":11,"dy":9},{"dx":9,"dy":11},{"dx":9,"dy":16},{"dx":2,"dy":6},{"dx":1,"dy":9},{"dx":0,"dy":17},{"dx":-1,"dy":8},{"dx":0,"dy":8},{"dx":0,"dy":16},{"dx":0,"dy":8},{"dx":-1,"dy":9},{"dx":-2,"dy":5},{"dx":-4,"dy":4},{"dx":-1,"dy":0},{"dx":-5,"dy":2},{"dx":-4,"dy":-3},{"dx":2,"dy":-12},{"dx":18,"dy":-26},{"dx":17,"dy":-18},{"dx":20,"dy":-14},{"dx":19,"dy":-15},{"dx":8,"dy":-8},{"dx":3,"dy":-5},{"dx":5,"dy":-13},{"dx":-1,"dy":-8},{"dx":-7,"dy":-9},{"dx":-13,"dy":-12},{"dx":-8,"dy":-9},{"dx":-9,"dy":-6},{"dx":-8,"dy":-7},{"dx":-10,"dy":-8},{"dx":-9,"dy":-7},{"dx":-15,"dy":-11},{"dx":-10,"dy":-5},{"dx":-15,"dy":-7},{"dx":-10,"dy":-4},{"dx":-10,"dy":-4},{"dx":-11,"dy":-2},{"dx":-14,"dy":-3},{"dx":-10,"dy":-3},{"dx":-11,"dy":-2},{"dx":-18,"dy":-2},{"dx":-14,"dy":-1},{"dx":-14,"dy":-1},{"dx":-12,"dy":-1},{"dx":-9,"dy":0},{"dx":-9,"dy":-2},{"dx":-16,"dy":0},{"dx":-11,"dy":0},{"dx":-14,"dy":1},{"dx":-16,"dy":1},{"dx":-12,"dy":0},{"dx":-13,"dy":0},{"dx":-17,"dy":0},{"dx":-11,"dy":0},{"dx":-11,"dy":-1},{"dx":-14,"dy":0},{"dx":-10,"dy":0},{"dx":-9,"dy":0},{"dx":-13,"dy":2},{"dx":-6,"dy":3},{"dx":-6,"dy":3},{"dx":-4,"dy":5},{"dx":-5,"dy":7},{"dx":-3,"dy":7},{"dx":-10,"dy":18},{"dx":-5,"dy":9},{"dx":-2,"dy":6},{"dx":-4,"dy":19},{"dx":-1,"dy":13},{"dx":0,"dy":12},{"dx":0,"dy":19},{"dx":0,"dy":12},{"dx":0,"dy":12},{"dx":0,"dy":14},{"dx":0,"dy":8},{"dx":-1,"dy":9},{"dx":-5,"dy":15},{"dx":-3,"dy":11},{"dx":-4,"dy":8},{"dx":-2,"dy":8},{"dx":-3,"dy":8},{"dx":-2,"dy":6},{"dx":-5,"dy":9},{"dx":-3,"dy":4},{"dx":-5,"dy":3},{"dx":-5,"dy":2},{"dx":-5,"dy":0},{"dx":-11,"dy":-2},{"dx":-15,"dy":-6},{"dx":-9,"dy":-5},{"dx":-7,"dy":-5},{"dx":-4,"dy":-5},{"dx":-3,"dy":-6},{"dx":-2,"dy":-6},{"dx":-2,"dy":-5},{"dx":0,"dy":0},{"dx":0,"dy":-1},{"dx":0,"dy":0},{"dx":1,"dy":3},{"dx":3,"dy":7},{"dx":3,"dy":14},{"dx":3,"dy":14},{"dx":3,"dy":16},{"dx":7,"dy":26},{"dx":9,"dy":22},{"dx":11,"dy":20},{"dx":14,"dy":18},{"dx":25,"dy":27},{"dx":24,"dy":17},{"dx":31,"dy":21},{"dx":49,"dy":29},{"dx":37,"dy":21},{"dx":52,"dy":28},{"dx":36,"dy":15},{"dx":42,"dy":12},{"dx":45,"dy":9},{"dx":76,"dy":7},{"dx":49,"dy":0},{"dx":56,"dy":-2},{"dx":73,"dy":-4},{"dx":46,"dy":-3},{"dx":42,"dy":-4},{"dx":50,"dy":-6},{"dx":22,"dy":-5},{"dx":14,"dy":-5},{"dx":15,"dy":-8},{"dx":8,"dy":-7},{"dx":5,"dy":-7},{"dx":5,"dy":-8},{"dx":5,"dy":-9},{"dx":4,"dy":-7},{"dx":4,"dy":-16},{"dx":2,"dy":-10},{"dx":0,"dy":-9},{"dx":-2,"dy":-8},{"dx":-6,"dy":-14},{"dx":-10,"dy":-13},{"dx":-24,"dy":-22},{"dx":-17,"dy":-13},{"dx":-33,"dy":-22},{"dx":-17,"dy":-12},{"dx":-12,"dy":-9},{"dx":-16,"dy":-12},{"dx":-8,"dy":-6},{"dx":-5,"dy":-3},{"dx":-6,"dy":-5},{"dx":-9,"dy":-7},{"dx":-5,"dy":-2},{"dx":-9,"dy":-3},{"dx":-16,"dy":-1},{"dx":-15,"dy":0},{"dx":-17,"dy":2},{"dx":-34,"dy":4},{"dx":-19,"dy":5},{"dx":-23,"dy":3},{"dx":-13,"dy":2},{"dx":-6,"dy":1},{"dx":-7,"dy":1},{"dx":-12,"dy":0},{"dx":-5,"dy":0},{"dx":-5,"dy":0},{"dx":-5,"dy":0},{"dx":-5,"dy":-1},{"dx":-6,"dy":-2},{"dx":-19,"dy":-5},{"dx":-14,"dy":-4},{"dx":-16,"dy":-4},{"dx":-33,"dy":-9},{"dx":-21,"dy":-5},{"dx":-18,"dy":-6},{"dx":-21,"dy":-6},{"dx":-12,"dy":-5},{"dx":-10,"dy":-6},{"dx":-9,"dy":-7},{"dx":-4,"dy":-8},{"dx":0,"dy":-15},{"dx":19,"dy":-35},{"dx":11,"dy":-15},{"dx":7,"dy":-12},{"dx":5,"dy":-14},{"dx":2,"dy":-8},{"dx":0,"dy":-7},{"dx":-3,"dy":-7},{"dx":-10,"dy":-8},{"dx":-16,"dy":-4},{"dx":-36,"dy":-8},{"dx":-30,"dy":-3},{"dx":-32,"dy":-3},{"dx":-53,"dy":-3},{"dx":-43,"dy":-2},{"dx":-23,"dy":-1},{"dx":-13,"dy":-1},{"dx":-8,"dy":-1},{"dx":-3,"dy":-1},{"dx":-6,"dy":-1},{"dx":-4,"dy":-3},{"dx":0,"dy":0},{"dx":-4,"dy":-4},{"dx":0,"dy":-1},{"dx":0,"dy":-2},{"dx":0,"dy":-1},{"dx":0,"dy":0},{"dx":0,"dy":-1},{"dx":0,"dy":0},{"dx":0,"dy":-1},{"dx":0,"dy":0},{"dx":0,"dy":0},{"dx":0,"dy":-1},{"dx":0,"dy":-1},{"dx":1,"dy":-6},{"dx":4,"dy":-5},{"dx":12,"dy":-14},{"dx":46,"dy":-18},{"dx":46,"dy":-9},{"dx":42,"dy":-7},{"dx":46,"dy":-7},{"dx":30,"dy":-3},{"dx":21,"dy":-3},{"dx":33,"dy":-2},{"dx":14,"dy":-2},{"dx":13,"dy":-1},{"dx":20,"dy":-3},{"dx":12,"dy":-1},{"dx":15,"dy":-3},{"dx":22,"dy":-2},{"dx":13,"dy":-1},{"dx":15,"dy":-1},{"dx":22,"dy":0},{"dx":10,"dy":0},{"dx":5,"dy":1},{"dx":5,"dy":1},{"dx":5,"dy":1},{"dx":0,"dy":0},{"dx":5,"dy":4},{"dx":0,"dy":1},{"dx":4,"dy":4},{"dx":2,"dy":5},{"dx":5,"dy":10},{"dx":4,"dy":8},{"dx":3,"dy":8},{"dx":8,"dy":15},{"dx":7,"dy":12},{"dx":9,"dy":15},{"dx":10,"dy":23},{"dx":10,"dy":21},{"dx":10,"dy":23},{"dx":14,"dy":40},{"dx":7,"dy":28},{"dx":6,"dy":28},{"dx":12,"dy":39},{"dx":9,"dy":21},{"dx":14,"dy":18},{"dx":28,"dy":24},{"dx":24,"dy":14},{"dx":36,"dy":11},{"dx":65,"dy":10},{"dx":38,"dy":3},{"dx":29,"dy":1},{"dx":32,"dy":-1},{"dx":26,"dy":-2},{"dx":22,"dy":-4},{"dx":26,"dy":-6},{"dx":10,"dy":-4},{"dx":5,"dy":-3},{"dx":10,"dy":-8},{"dx":4,"dy":-5},{"dx":3,"dy":-4},{"dx":3,"dy":-5},{"dx":4,"dy":-6},{"dx":2,"dy":-5},{"dx":5,"dy":-14},{"dx":1,"dy":-7},{"dx":0,"dy":-6},{"dx":0,"dy":-6},{"dx":0,"dy":-6},{"dx":0,"dy":-5},{"dx":-3,"dy":-13},{"dx":-2,"dy":-5},{"dx":0,"dy":-6},{"dx":0,"dy":-7},{"dx":1,"dy":-5},{"dx":2,"dy":-5},{"dx":5,"dy":-7},{"dx":4,"dy":-5},{"dx":1,"dy":-1},{"dx":-4,"dy":-7},{"dx":-15,"dy":0},{"dx":-29,"dy":0},{"dx":-50,"dy":3},{"dx":-32,"dy":3},{"dx":-39,"dy":4},{"dx":-51,"dy":7},{"dx":-30,"dy":4},{"dx":-33,"dy":6},{"dx":-47,"dy":8},{"dx":-26,"dy":5},{"dx":-16,"dy":3},{"dx":-14,"dy":1},{"dx":-17,"dy":0},{"dx":-6,"dy":0},{"dx":-10,"dy":-3},{"dx":-3,"dy":-3},{"dx":-3,"dy":-5},{"dx":-2,"dy":-5},{"dx":-2,"dy":-6},{"dx":-3,"dy":-5},{"dx":-7,"dy":-13},{"dx":-6,"dy":-7},{"dx":-7,"dy":-8},{"dx":-11,"dy":-14},{"dx":-8,"dy":-8},{"dx":-8,"dy":-9},{"dx":-8,"dy":-13},{"dx":-3,"dy":-11},{"dx":0,"dy":-9},{"dx":0,"dy":-9},{"dx":2,"dy":-9},{"dx":2,"dy":-7},{"dx":3,"dy":-11},{"dx":2,"dy":-6},{"dx":2,"dy":-7},{"dx":1,"dy":-7},{"dx":0,"dy":0},{"dx":-2,"dy":-6},{"dx":-9,"dy":-11},{"dx":-3,"dy":-6},{"dx":-4,"dy":-6},{"dx":-10,"dy":-3},{"dx":-11,"dy":0},{"dx":-10,"dy":1},{"dx":-14,"dy":18},{"dx":-8,"dy":8},{"dx":-8,"dy":6},{"dx":-10,"dy":6},{"dx":-3,"dy":4},{"dx":-2,"dy":5},{"dx":1,"dy":13},{"dx":10,"dy":10},{"dx":18,"dy":7},{"dx":57,"dy":2},{"dx":43,"dy":-2},{"dx":39,"dy":-4},{"dx":53,"dy":-8},{"dx":27,"dy":-6},{"dx":27,"dy":-9},{"dx":18,"dy":-9},{"dx":5,"dy":-5},{"dx":2,"dy":-5},{"dx":0,"dy":-7},{"dx":-5,"dy":-13},{"dx":-8,"dy":-14},{"dx":-18,"dy":-12},{"dx":-13,"dy":-5},{"dx":-13,"dy":-4},{"dx":-25,"dy":-20},{"dx":-32,"dy":-17},{"dx":-18,"dy":-4},{"dx":-19,"dy":-2},{"dx":-26,"dy":0},{"dx":-19,"dy":1},{"dx":-15,"dy":3},{"dx":-25,"dy":26},{"dx":-12,"dy":8},{"dx":-11,"dy":7},{"dx":-19,"dy":8},{"dx":-13,"dy":23},{"dx":-11,"dy":11},{"dx":-13,"dy":12},{"dx":-10,"dy":6},{"dx":-8,"dy":13},{"dx":-4,"dy":15},{"dx":-3,"dy":8}],"trial_type":"plugin-moving-dots-2","trial_index":2,"plugin_version":"0.0.1","time_elapsed":69149},{"task":"fixation","rt":2506,"stimulus":"<div style=\"font-size:60px;\">+</div>","response":" ","trial_type":"html-keyboard-response","trial_index":3,"plugin_version":"2.1.0","time_elapsed":71658},{"task":"movingdots","control_change":0,"mouse_data":[{"dx":0,"dy":0},{"dx":0,"dy":0},{"dx":0,"dy":0},{"dx":0,"dy":0},{"dx":0,"dy":0},{"dx":0,"dy":0},{"dx":0,"dy":0},{"dx":0,"dy":0},{"dx":0,"dy":0},{"dx":0,"dy":0},{"dx":0,"dy":0},{"dx":0,"dy":0},{"dx":0,"dy":0},{"dx":0,"dy":0},{"dx":0,"dy":0},{"dx":0,"dy":0},{"dx":0,"dy":0},{"dx":0,"dy":0},{"dx":0,"dy":0},{"dx":0,"dy":0},{"dx":0,"dy":0},{"dx":0,"dy":0},{"dx":0,"dy":0},{"dx":0,"dy":0},{"dx":0,"dy":0},{"dx":0,"dy":0},{"dx":0,"dy":0},{"dx":0,"dy":0},{"dx":0,"dy":0},{"dx":0,"dy":0},{"dx":0,"dy":0},{"dx":0,"dy":0},{"dx":0,"dy":0},{"dx":0,"dy":0},{"dx":0,"dy":0},{"dx":0,"dy":0},{"dx":0,"dy":0},{"dx":0,"dy":0},{"dx":0,"dy":0},{"dx":0,"dy":0},{"dx":0,"dy":0},{"dx":0,"dy":0},{"dx":0,"dy":0},{"dx":0,"dy":0},{"dx":0,"dy":0},{"dx":0,"dy":0},{"dx":0,"dy":0},{"dx":0,"dy":0},{"dx":0,"dy":0},{"dx":0,"dy":0},{"dx":0,"dy":0},{"dx":0,"dy":0},{"dx":0,"dy":0},{"dx":0,"dy":0},{"dx":0,"dy":0},{"dx":0,"dy":0},{"dx":0,"dy":0},{"dx":0,"dy":0},{"dx":0,"dy":0},{"dx":0,"dy":0},{"dx":0,"dy":0},{"dx":0,"dy":0},{"dx":0,"dy":0},{"dx":0,"dy":0},{"dx":0,"dy":0},{"dx":0,"dy":0},{"dx":0,"dy":0},{"dx":0,"dy":0},{"dx":0,"dy":0},{"dx":0,"dy":0},{"dx":0,"dy":0},{"dx":0,"dy":0},{"dx":0,"dy":0},{"dx":0,"dy":0},{"dx":0,"dy":0},{"dx":0,"dy":0},{"dx":0,"dy":0},{"dx":0,"dy":0},{"dx":0,"dy":0},{"dx":0,"dy":0},{"dx":0,"dy":0},{"dx":0,"dy":0},{"dx":0,"dy":0},{"dx":0,"dy":0},{"dx":0,"dy":0},{"dx":0,"dy":0},{"dx":0,"dy":0},{"dx":0,"dy":0},{"dx":0,"dy":0},{"dx":0,"dy":0},{"dx":0,"dy":0},{"dx":0,"dy":0},{"dx":0,"dy":0},{"dx":0,"dy":0},{"dx":0,"dy":0},{"dx":0,"dy":0},{"dx":0,"dy":0},{"dx":0,"dy":0},{"dx":0,"dy":0},{"dx":0,"dy":0},{"dx":0,"dy":0},{"dx":0,"dy":0},{"dx":0,"dy":0},{"dx":0,"dy":0},{"dx":0,"dy":0},{"dx":0,"dy":0},{"dx":0,"dy":0},{"dx":0,"dy":0},{"dx":0,"dy":0},{"dx":0,"dy":0},{"dx":0,"dy":0},{"dx":0,"dy":0},{"dx":0,"dy":0},{"dx":0,"dy":0},{"dx":0,"dy":0},{"dx":0,"dy":0},{"dx":0,"dy":0},{"dx":0,"dy":0},{"dx":0,"dy":0},{"dx":0,"dy":0},{"dx":0,"dy":0},{"dx":-11,"dy":9},{"dx":-15,"dy":13},{"dx":-10,"dy":11},{"dx":-8,"dy":11},{"dx":-3,"dy":6},{"dx":-1,"dy":6},{"dx":1,"dy":6},{"dx":4,"dy":4},{"dx":7,"dy":3},{"dx":19,"dy":1},{"dx":14,"dy":-4},{"dx":12,"dy":-3},{"dx":11,"dy":-4},{"dx":6,"dy":-2},{"dx":8,"dy":-2},{"dx":6,"dy":-3},{"dx":6,"dy":-8},{"dx":6,"dy":-13},{"dx":6,"dy":-24},{"dx":1,"dy":-15},{"dx":1,"dy":-6},{"dx":0,"dy":-11},{"dx":-1,"dy":-1},{"dx":-3,"dy":-5},{"dx":-13,"dy":-6},{"dx":-14,"dy":-4},{"dx":-14,"dy":-5},{"dx":-20,"dy":-7},{"dx":-10,"dy":-7},{"dx":-11,"dy":-7},{"dx":-12,"dy":-13},{"dx":-10,"dy":-11},{"dx":-8,"dy":-10},{"dx":-7,"dy":-9},{"dx":-5,"dy":-7},{"dx":-5,"dy":-4},{"dx":-18,"dy":-5},{"dx":-14,"dy":-1},{"dx":-13,"dy":-1},{"dx":-18,"dy":1},{"dx":-11,"dy":2},{"dx":-5,"dy":1},{"dx":-9,"dy":6},{"dx":0,"dy":0},{"dx":-3,"dy":4},{"dx":0,"dy":7},{"dx":4,"dy":3},{"dx":3,"dy":2},{"dx":11,"dy":0},{"dx":14,"dy":-10},{"dx":15,"dy":-19},{"dx":17,"dy":-28},{"dx":2,"dy":-7},{"dx":1,"dy":-8},{"dx":-6,"dy":-12},{"dx":-10,"dy":-4},{"dx":-15,"dy":-2},{"dx":-24,"dy":2},{"dx":-12,"dy":3},{"dx":-15,"dy":2},{"dx":-12,"dy":2},{"dx":-8,"dy":3},{"dx":-6,"dy":3},{"dx":-15,"dy":11},{"dx":-7,"dy":12},{"dx":-5,"dy":10},{"dx":-7,"dy":12},{"dx":-3,"dy":6},{"dx":-3,"dy":7},{"dx":-2,"dy":7},{"dx":-3,"dy":8},{"dx":-2,"dy":9},{"dx":-5,"dy":14},{"dx":-2,"dy":9},{"dx":-2,"dy":7},{"dx":-2,"dy":5},{"dx":-2,"dy":5},{"dx":0,"dy":1},{"dx":-6,"dy":7},{"dx":-2,"dy":0},{"dx":-6,"dy":2},{"dx":-18,"dy":-4},{"dx":-11,"dy":-8},{"dx":-7,"dy":-11},{"dx":-7,"dy":-20},{"dx":-1,"dy":-15},{"dx":2,"dy":-14},{"dx":4,"dy":-9},{"dx":11,"dy":-7},{"dx":17,"dy":-8},{"dx":60,"dy":-27},{"dx":59,"dy":-26},{"dx":50,"dy":-19},{"dx":30,"dy":-11},{"dx":5,"dy":-2},{"dx":1,"dy":-1},{"dx":5,"dy":-3},{"dx":3,"dy":-3},{"dx":0,"dy":-2},{"dx":-9,"dy":-5},{"dx":-12,"dy":2},{"dx":-15,"dy":4},{"dx":-32,"dy":6},{"dx":-16,"dy":5},{"dx":-17,"dy":4},{"dx":-15,"dy":4},{"dx":-16,"dy":7},{"dx":-13,"dy":8},{"dx":-12,"dy":11},{"dx":-12,"dy":5},{"dx":0,"dy":0},{"dx":-1,"dy":1},{"dx":-1,"dy":0},{"dx":0,"dy":0},{"dx":0,"dy":0},{"dx":-1,"dy":0},{"dx":-1,"dy":-5},{"dx":-2,"dy":-5},{"dx":-4,"dy":-9},{"dx":-1,"dy":-1},{"dx":-3,"dy":-5},{"dx":-6,"dy":-9},{"dx":-6,"dy":-10},{"dx":-2,"dy":-5},{"dx":-3,"dy":-9},{"dx":-1,"dy":-4},{"dx":-1,"dy":-1},{"dx":-2,"dy":-2},{"dx":0,"dy":-1},{"dx":-1,"dy":-1},{"dx":-1,"dy":-1},{"dx":0,"dy":-1},{"dx":-1,"dy":0},{"dx":0,"dy":0},{"dx":0,"dy":0},{"dx":0,"dy":0},{"dx":0,"dy":0},{"dx":1,"dy":6},{"dx":4,"dy":10},{"dx":12,"dy":15},{"dx":25,"dy":9},{"dx":46,"dy":15},{"dx":42,"dy":18},{"dx":34,"dy":26},{"dx":28,"dy":18},{"dx":47,"dy":25},{"dx":34,"dy":15},{"dx":40,"dy":13},{"dx":76,"dy":12},{"dx":57,"dy":0},{"dx":52,"dy":-2},{"dx":51,"dy":-3},{"dx":21,"dy":-1},{"dx":14,"dy":0},{"dx":11,"dy":0},{"dx":4,"dy":0},{"dx":1,"dy":0},{"dx":0,"dy":0},{"dx":0,"dy":0},{"dx":-12,"dy":0},{"dx":-30,"dy":3},{"dx":-25,"dy":5},{"dx":-23,"dy":7},{"dx":-30,"dy":14},{"dx":-25,"dy":15},{"dx":-23,"dy":17},{"dx":-42,"dy":34},{"dx":-26,"dy":23},{"dx":-26,"dy":20},{"dx":-25,"dy":23},{"dx":-11,"dy":11},{"dx":-7,"dy":11},{"dx":-10,"dy":14},{"dx":-4,"dy":7},{"dx":-2,"dy":5},{"dx":-2,"dy":5},{"dx":-1,"dy":5},{"dx":-2,"dy":5},{"dx":0,"dy":1},{"dx":-6,"dy":12},{"dx":-4,"dy":6},{"dx":-5,"dy":6},{"dx":-5,"dy":6},{"dx":-5,"dy":5},{"dx":-4,"dy":3},{"dx":-2,"dy":0},{"dx":-1,"dy":1},{"dx":0,"dy":-8},{"dx":6,"dy":-21},{"dx":2,"dy":-10},{"dx":0,"dy":-9},{"dx":0,"dy":-5},{"dx":0,"dy":-1},{"dx":0,"dy":-1},{"dx":3,"dy":0},{"dx":8,"dy":2},{"dx":13,"dy":8},{"dx":36,"dy":17},{"dx":27,"dy":10},{"dx":25,"dy":10},{"dx":33,"dy":14},{"dx":19,"dy":6},{"dx":19,"dy":5},{"dx":39,"dy":2},{"dx":33,"dy":-4},{"dx":40,"dy":-11},{"dx":61,"dy":-27},{"dx":32,"dy":-16},{"dx":20,"dy":-12},{"dx":19,"dy":-8},{"dx":4,"dy":-3},{"dx":1,"dy":-1},{"dx":3,"dy":-11},{"dx":-4,"dy":-7},{"dx":-10,"dy":-7},{"dx":-36,"dy":-10},{"dx":-37,"dy":-2},{"dx":-35,"dy":-1},{"dx":-42,"dy":-3},{"dx":-19,"dy":-4},{"dx":-14,"dy":-4},{"dx":-12,"dy":-10},{"dx":-2,"dy":-12},{"dx":4,"dy":-18},{"dx":45,"dy":-65},{"dx":30,"dy":-38},{"dx":30,"dy":-37},{"dx":19,"dy":-34},{"dx":3,"dy":-17},{"dx":0,"dy":-15},{"dx":-5,"dy":-22},{"dx":-17,"dy":-23},{"dx":-26,"dy":-20},{"dx":-66,"dy":-32},{"dx":-57,"dy":-18},{"dx":-61,"dy":-11},{"dx":-87,"dy":-3},{"dx":-50,"dy":5},{"dx":-39,"dy":5},{"dx":-23,"dy":6},{"dx":-5,"dy":4},{"dx":-3,"dy":4},{"dx":2,"dy":13},{"dx":9,"dy":8},{"dx":16,"dy":8},{"dx":22,"dy":12},{"dx":14,"dy":9},{"dx":10,"dy":12},{"dx":13,"dy":21},{"dx":5,"dy":18},{"dx":2,"dy":18},{"dx":2,"dy":33},{"dx":3,"dy":19},{"dx":5,"dy":16},{"dx":11,"dy":22},{"dx":11,"dy":13},{"dx":9,"dy":10},{"dx":8,"dy":9},{"dx":4,"dy":8},{"dx":1,"dy":6},{"dx":-3,"dy":18},{"dx":-9,"dy":10},{"dx":-9,"dy":13},{"dx":-15,"dy":17},{"dx":-4,"dy":6},{"dx":-5,"dy":6},{"dx":-1,"dy":5},{"dx":0,"dy":5},{"dx":2,"dy":4},{"dx":9,"dy":5},{"dx":4,"dy":1},{"dx":1,"dy":0},{"dx":3,"dy":3},{"dx":1,"dy":1},{"dx":0,"dy":0},{"dx":-3,"dy":4},{"dx":-12,"dy":1},{"dx":-12,"dy":0},{"dx":-17,"dy":0},{"dx":-5,"dy":0},{"dx":-7,"dy":0},{"dx":-5,"dy":1},{"dx":0,"dy":0},{"dx":0,"dy":0},{"dx":0,"dy":0},{"dx":0,"dy":0},{"dx":0,"dy":0},{"dx":0,"dy":0},{"dx":0,"dy":0},{"dx":0,"dy":0},{"dx":0,"dy":0},{"dx":0,"dy":0},{"dx":0,"dy":0},{"dx":0,"dy":0},{"dx":0,"dy":0},{"dx":0,"dy":0},{"dx":0,"dy":0},{"dx":0,"dy":0},{"dx":0,"dy":0},{"dx":0,"dy":0},{"dx":0,"dy":0},{"dx":0,"dy":0},{"dx":0,"dy":0},{"dx":0,"dy":0},{"dx":0,"dy":0},{"dx":0,"dy":0},{"dx":-36,"dy":-1},{"dx":-53,"dy":-1},{"dx":-79,"dy":-6},{"dx":-44,"dy":-5},{"dx":-31,"dy":-5},{"dx":-30,"dy":-4},{"dx":-12,"dy":-3},{"dx":-8,"dy":-2},{"dx":-5,"dy":-1},{"dx":-4,"dy":-2},{"dx":-5,"dy":-3},{"dx":-5,"dy":-3},{"dx":-8,"dy":-8},{"dx":-3,"dy":-3},{"dx":-3,"dy":-4},{"dx":-3,"dy":-7},{"dx":-1,"dy":-4},{"dx":0,"dy":-8},{"dx":1,"dy":-10},{"dx":3,"dy":-11},{"dx":3,"dy":-8},{"dx":6,"dy":-12},{"dx":3,"dy":-7},{"dx":6,"dy":-8},{"dx":15,"dy":-15}],"trial_type":"plugin-moving-dots-2","trial_index":4,"plugin_version":"0.0.1","time_elapsed":79162},{"task":"fixation","rt":2782,"stimulus":"<div style=\"font-size:60px;\">+</div>","response":" ","trial_type":"html-keyboard-response","trial_index":5,"plugin_version":"2.1.0","time_elapsed":81946},{"task":"movingdots","control_change":0,"mouse_data":[{"dx":0,"dy":0},{"dx":0,"dy":0},{"dx":0,"dy":0},{"dx":0,"dy":0},{"dx":0,"dy":0},{"dx":0,"dy":0},{"dx":0,"dy":0},{"dx":0,"dy":0},{"dx":0,"dy":0},{"dx":0,"dy":0},{"dx":0,"dy":0},{"dx":0,"dy":0},{"dx":0,"dy":0},{"dx":0,"dy":0},{"dx":0,"dy":0},{"dx":0,"dy":0},{"dx":0,"dy":0},{"dx":0,"dy":0},{"dx":0,"dy":0},{"dx":0,"dy":0},{"dx":0,"dy":0},{"dx":0,"dy":0},{"dx":0,"dy":0},{"dx":0,"dy":0},{"dx":0,"dy":0},{"dx":0,"dy":0},{"dx":0,"dy":0},{"dx":0,"dy":0},{"dx":0,"dy":0},{"dx":0,"dy":0},{"dx":0,"dy":0},{"dx":0,"dy":0},{"dx":0,"dy":0},{"dx":0,"dy":0},{"dx":0,"dy":0},{"dx":0,"dy":0},{"dx":0,"dy":0},{"dx":0,"dy":0},{"dx":0,"dy":0},{"dx":0,"dy":0},{"dx":0,"dy":0},{"dx":3,"dy":-3},{"dx":6,"dy":-3},{"dx":13,"dy":-8},{"dx":9,"dy":-6},{"dx":11,"dy":-4},{"dx":11,"dy":-4},{"dx":0,"dy":0},{"dx":4,"dy":-1},{"dx":0,"dy":0},{"dx":0,"dy":0},{"dx":0,"dy":0},{"dx":0,"dy":0},{"dx":0,"dy":0},{"dx":0,"dy":0},{"dx":0,"dy":0},{"dx":0,"dy":0},{"dx":0,"dy":0},{"dx":0,"dy":0},{"dx":0,"dy":0},{"dx":0,"dy":0},{"dx":0,"dy":0},{"dx":0,"dy":0},{"dx":0,"dy":0},{"dx":8,"dy":-4},{"dx":31,"dy":-14},{"dx":32,"dy":-12},{"dx":36,"dy":-10},{"dx":15,"dy":-3},{"dx":11,"dy":-1},{"dx":11,"dy":0},{"dx":10,"dy":3},{"dx":9,"dy":1},{"dx":11,"dy":1},{"dx":10,"dy":0},{"dx":10,"dy":0},{"dx":11,"dy":0},{"dx":0,"dy":0},{"dx":2,"dy":0},{"dx":0,"dy":0},{"dx":0,"dy":0},{"dx":0,"dy":0},{"dx":0,"dy":0},{"dx":0,"dy":0},{"dx":0,"dy":0},{"dx":0,"dy":0},{"dx":0,"dy":0},{"dx":0,"dy":0},{"dx":0,"dy":0},{"dx":0,"dy":0},{"dx":0,"dy":0},{"dx":7,"dy":-5},{"dx":25,"dy":-18},{"dx":24,"dy":-17},{"dx":21,"dy":-17},{"dx":4,"dy":-5},{"dx":5,"dy":-4},{"dx":3,"dy":-3},{"dx":0,"dy":-1},{"dx":1,"dy":-2},{"dx":0,"dy":-6},{"dx":0,"dy":-1},{"dx":0,"dy":-6},{"dx":-13,"dy":-14},{"dx":-21,"dy":-11},{"dx":-26,"dy":-12},{"dx":-42,"dy":-18},{"dx":-21,"dy":-9},{"dx":-21,"dy":-8},{"dx":-20,"dy":-6},{"dx":-5,"dy":-1},{"dx":-8,"dy":-1},{"dx":-8,"dy":0},{"dx":-1,"dy":0},{"dx":-1,"dy":-1},{"dx":-2,"dy":0},{"dx":0,"dy":0},{"dx":0,"dy":0},{"dx":15,"dy":-7},{"dx":21,"dy":-1},{"dx":27,"dy":-1},{"dx":31,"dy":1},{"dx":23,"dy":4},{"dx":28,"dy":7},{"dx":38,"dy":18},{"dx":19,"dy":13},{"dx":12,"dy":16},{"dx":11,"dy":19},{"dx":3,"dy":11},{"dx":1,"dy":6},{"dx":0,"dy":21},{"dx":-3,"dy":10},{"dx":-8,"dy":11},{"dx":-24,"dy":18},{"dx":-30,"dy":16},{"dx":-32,"dy":12},{"dx":-45,"dy":17},{"dx":-32,"dy":7},{"dx":-29,"dy":2},{"dx":-44,"dy":0},{"dx":-27,"dy":-4},{"dx":-30,"dy":-5},{"dx":-37,"dy":-10},{"dx":-20,"dy":-5},{"dx":-17,"dy":-5},{"dx":-21,"dy":-5},{"dx":-11,"dy":-3},{"dx":-6,"dy":-2},{"dx":-7,"dy":-1},{"dx":-5,"dy":-1},{"dx":-5,"dy":-1},{"dx":-1,"dy":0},{"dx":-3,"dy":-3},{"dx":-1,"dy":-2},{"dx":0,"dy":-4},{"dx":0,"dy":-8},{"dx":2,"dy":-5},{"dx":0,"dy":-1},{"dx":0,"dy":-1},{"dx":0,"dy":0},{"dx":-5,"dy":0},{"dx":-12,"dy":10},{"dx":-9,"dy":10},{"dx":-8,"dy":9},{"dx":-8,"dy":18},{"dx":-3,"dy":13},{"dx":-1,"dy":13},{"dx":1,"dy":18},{"dx":4,"dy":12},{"dx":4,"dy":13},{"dx":9,"dy":20},{"dx":5,"dy":12},{"dx":3,"dy":11},{"dx":0,"dy":17},{"dx":-1,"dy":11},{"dx":-2,"dy":10},{"dx":0,"dy":7},{"dx":0,"dy":6},{"dx":1,"dy":6},{"dx":3,"dy":4},{"dx":2,"dy":5},{"dx":4,"dy":5},{"dx":7,"dy":10},{"dx":1,"dy":0},{"dx":4,"dy":5},{"dx":3,"dy":4},{"dx":0,"dy":1},{"dx":2,"dy":4},{"dx":4,"dy":7},{"dx":10,"dy":11},{"dx":12,"dy":11},{"dx":15,"dy":12},{"dx":9,"dy":7},{"dx":7,"dy":6},{"dx":12,"dy":6},{"dx":6,"dy":3},{"dx":9,"dy":4},{"dx":16,"dy":9},{"dx":11,"dy":7},{"dx":6,"dy":4},{"dx":8,"dy":5},{"dx":1,"dy":0},{"dx":5,"dy":1},{"dx":13,"dy":-3},{"dx":8,"dy":-7},{"dx":9,"dy":-8},{"dx":14,"dy":-14},{"dx":8,"dy":-8},{"dx":6,"dy":-4},{"dx":4,"dy":-2},{"dx":1,"dy":-1},{"dx":0,"dy":-1},{"dx":1,"dy":-1},{"dx":-1,"dy":-6},{"dx":-11,"dy":-8},{"dx":-30,"dy":-13},{"dx":-26,"dy":-7},{"dx":-25,"dy":-5},{"dx":-32,"dy":-7},{"dx":-18,"dy":-4},{"dx":-15,"dy":-5},{"dx":-23,"dy":-7},{"dx":-15,"dy":-6},{"dx":-14,"dy":-6},{"dx":-22,"dy":-12},{"dx":-19,"dy":-11},{"dx":-19,"dy":-11},{"dx":-23,"dy":-17},{"dx":-19,"dy":-18},{"dx":-17,"dy":-16},{"dx":-19,"dy":-23},{"dx":-11,"dy":-13},{"dx":-12,"dy":-16},{"dx":-11,"dy":-20},{"dx":-6,"dy":-12},{"dx":-5,"dy":-11},{"dx":-6,"dy":-16},{"dx":-2,"dy":-6},{"dx":-4,"dy":-13},{"dx":-8,"dy":-10},{"dx":-7,"dy":-8},{"dx":-4,"dy":-4},{"dx":-3,"dy":-5},{"dx":-6,"dy":-14},{"dx":0,"dy":-2},{"dx":-2,"dy":-4},{"dx":2,"dy":-7},{"dx":9,"dy":-10},{"dx":13,"dy":-14},{"dx":17,"dy":-18},{"dx":10,"dy":-7},{"dx":13,"dy":-4},{"dx":19,"dy":-5},{"dx":16,"dy":-3},{"dx":20,"dy":-3},{"dx":30,"dy":-6},{"dx":19,"dy":-5},{"dx":12,"dy":-3},{"dx":10,"dy":-3},{"dx":7,"dy":-3},{"dx":6,"dy":-2},{"dx":8,"dy":-2},{"dx":6,"dy":0},{"dx":7,"dy":0},{"dx":6,"dy":1},{"dx":4,"dy":1},{"dx":0,"dy":0},{"dx":-2,"dy":7},{"dx":-11,"dy":5},{"dx":-20,"dy":9},{"dx":-42,"dy":16},{"dx":-28,"dy":10},{"dx":-21,"dy":9},{"dx":-11,"dy":5},{"dx":-5,"dy":2},{"dx":-2,"dy":0},{"dx":-1,"dy":1},{"dx":0,"dy":0},{"dx":-2,"dy":-4},{"dx":-4,"dy":-6},{"dx":-10,"dy":-2},{"dx":-13,"dy":0},{"dx":-28,"dy":18},{"dx":-10,"dy":5},{"dx":-7,"dy":5},{"dx":-13,"dy":8},{"dx":-11,"dy":8},{"dx":-12,"dy":22},{"dx":-12,"dy":21},{"dx":-6,"dy":11},{"dx":-4,"dy":17},{"dx":-4,"dy":16},{"dx":-4,"dy":8},{"dx":-7,"dy":8},{"dx":-5,"dy":13},{"dx":-2,"dy":8},{"dx":0,"dy":6},{"dx":0,"dy":7},{"dx":1,"dy":8},{"dx":8,"dy":15},{"dx":21,"dy":23},{"dx":17,"dy":13},{"dx":18,"dy":13},{"dx":23,"dy":12},{"dx":15,"dy":6},{"dx":17,"dy":2},{"dx":31,"dy":-7},{"dx":27,"dy":-16},{"dx":26,"dy":-22},{"dx":34,"dy":-31},{"dx":22,"dy":-26},{"dx":17,"dy":-23},{"dx":24,"dy":-30},{"dx":12,"dy":-12},{"dx":11,"dy":-9},{"dx":24,"dy":-10},{"dx":18,"dy":-4},{"dx":17,"dy":-3},{"dx":20,"dy":-2},{"dx":6,"dy":0},{"dx":3,"dy":2},{"dx":-2,"dy":12},{"dx":-13,"dy":17},{"dx":-26,"dy":25},{"dx":-61,"dy":55},{"dx":-34,"dy":31},{"dx":-28,"dy":25},{"dx":-25,"dy":26},{"dx":-7,"dy":10},{"dx":-3,"dy":6},{"dx":-3,"dy":18},{"dx":0,"dy":7},{"dx":3,"dy":8},{"dx":9,"dy":10},{"dx":10,"dy":7},{"dx":11,"dy":5},{"dx":10,"dy":6},{"dx":9,"dy":3},{"dx":11,"dy":2},{"dx":24,"dy":3},{"dx":21,"dy":3},{"dx":25,"dy":3},{"dx":28,"dy":4},{"dx":16,"dy":2},{"dx":12,"dy":0},{"dx":18,"dy":-4},{"dx":10,"dy":-3},{"dx":8,"dy":-3},{"dx":5,"dy":-1},{"dx":5,"dy":-1},{"dx":1,"dy":0},{"dx":5,"dy":0},{"dx":3,"dy":2},{"dx":4,"dy":3},{"dx":11,"dy":6},{"dx":4,"dy":3},{"dx":5,"dy":4},{"dx":4,"dy":1},{"dx":4,"dy":2},{"dx":6,"dy":0},{"dx":17,"dy":0},{"dx":7,"dy":0},{"dx":8,"dy":-1},{"dx":8,"dy":-2},{"dx":11,"dy":-7},{"dx":9,"dy":-9},{"dx":8,"dy":-9},{"dx":4,"dy":-5},{"dx":4,"dy":-6},{"dx":-4,"dy":-8},{"dx":-13,"dy":-10},{"dx":-24,"dy":-17},{"dx":-52,"dy":-28},{"dx":-31,"dy":-19},{"dx":-22,"dy":-15},{"dx":-15,"dy":-18},{"dx":-7,"dy":-12},{"dx":-7,"dy":-12},{"dx":-6,"dy":-15},{"dx":-8,"dy":-11},{"dx":-10,"dy":-13},{"dx":-40,"dy":-26},{"dx":-36,"dy":-16},{"dx":-42,"dy":-14},{"dx":-60,"dy":-14},{"dx":-21,"dy":-8},{"dx":-11,"dy":-7},{"dx":-7,"dy":-8},{"dx":-2,"dy":-5},{"dx":0,"dy":-5},{"dx":14,"dy":-13},{"dx":17,"dy":-11},{"dx":16,"dy":-8},{"dx":15,"dy":-8},{"dx":22,"dy":-13},{"dx":22,"dy":-12},{"dx":23,"dy":-11},{"dx":31,"dy":-13},{"dx":14,"dy":-2},{"dx":14,"dy":0},{"dx":19,"dy":7},{"dx":11,"dy":5},{"dx":9,"dy":5},{"dx":11,"dy":6},{"dx":7,"dy":2},{"dx":10,"dy":2},{"dx":18,"dy":5},{"dx":14,"dy":5},{"dx":15,"dy":8},{"dx":34,"dy":21},{"dx":22,"dy":12},{"dx":19,"dy":10},{"dx":9,"dy":5},{"dx":5,"dy":3},{"dx":3,"dy":5},{"dx":2,"dy":7},{"dx":1,"dy":15},{"dx":4,"dy":15},{"dx":6,"dy":19},{"dx":2,"dy":5},{"dx":4,"dy":7},{"dx":10,"dy":9},{"dx":6,"dy":6},{"dx":9,"dy":7},{"dx":6,"dy":4},{"dx":4,"dy":4},{"dx":4,"dy":3},{"dx":8,"dy":3},{"dx":5,"dy":1},{"dx":6,"dy":0},{"dx":8,"dy":-1},{"dx":5,"dy":-2},{"dx":5,"dy":-2},{"dx":4,"dy":-2},{"dx":0,"dy":0},{"dx":0,"dy":0},{"dx":0,"dy":0},{"dx":-2,"dy":4},{"dx":-5,"dy":6},{"dx":-12,"dy":16},{"dx":-6,"dy":11},{"dx":-5,"dy":10},{"dx":-7,"dy":19},{"dx":-7,"dy":14},{"dx":-8,"dy":15},{"dx":-15,"dy":23},{"dx":-11,"dy":13},{"dx":-10,"dy":11},{"dx":-10,"dy":10},{"dx":-4,"dy":5},{"dx":-4,"dy":4},{"dx":-11,"dy":11},{"dx":-12,"dy":9}],"trial_type":"plugin-moving-dots-2","trial_index":6,"plugin_version":"0.0.1","time_elapsed":89462},{"task":"fixation","rt":2418,"stimulus":"<div style=\"font-size:60px;\">+</div>","response":" ","trial_type":"html-keyboard-response","trial_index":7,"plugin_version":"2.1.0","time_elapsed":91881},{"task":"movingdots","control_change":0,"mouse_data":[{"dx":0,"dy":0},{"dx":0,"dy":0},{"dx":0,"dy":0},{"dx":0,"dy":0},{"dx":0,"dy":0},{"dx":0,"dy":0},{"dx":0,"dy":0},{"dx":0,"dy":0},{"dx":0,"dy":0},{"dx":0,"dy":0},{"dx":0,"dy":0},{"dx":0,"dy":0},{"dx":0,"dy":0},{"dx":0,"dy":0},{"dx":0,"dy":0},{"dx":0,"dy":0},{"dx":0,"dy":0},{"dx":0,"dy":0},{"dx":0,"dy":0},{"dx":0,"dy":0},{"dx":0,"dy":0},{"dx":0,"dy":0},{"dx":0,"dy":0},{"dx":0,"dy":0},{"dx":0,"dy":0},{"dx":0,"dy":0},{"dx":0,"dy":0},{"dx":0,"dy":0},{"dx":0,"dy":0},{"dx":0,"dy":0},{"dx":0,"dy":0},{"dx":0,"dy":0},{"dx":0,"dy":0},{"dx":0,"dy":0},{"dx":0,"dy":0},{"dx":0,"dy":0},{"dx":-5,"dy":-17},{"dx":-7,"dy":-13},{"dx":-9,"dy":-11},{"dx":-14,"dy":-14},{"dx":-5,"dy":-2},{"dx":-3,"dy":-4},{"dx":-3,"dy":-5},{"dx":0,"dy":-1},{"dx":1,"dy":-4},{"dx":21,"dy":-8},{"dx":22,"dy":-7},{"dx":19,"dy":-7},{"dx":30,"dy":-10},{"dx":14,"dy":-5},{"dx":6,"dy":-2},{"dx":7,"dy":-2},{"dx":0,"dy":0},{"dx":2,"dy":0},{"dx":0,"dy":0},{"dx":0,"dy":0},{"dx":0,"dy":0},{"dx":0,"dy":0},{"dx":0,"dy":0},{"dx":0,"dy":0},{"dx":0,"dy":0},{"dx":0,"dy":0},{"dx":8,"dy":-14},{"dx":32,"dy":-54},{"dx":7,"dy":-20},{"dx":1,"dy":-7},{"dx":-4,"dy":-15},{"dx":-3,"dy":-5},{"dx":-4,"dy":-2},{"dx":-6,"dy":-2},{"dx":-4,"dy":1},{"dx":-2,"dy":1},{"dx":0,"dy":0},{"dx":0,"dy":0},{"dx":0,"dy":0},{"dx":0,"dy":0},{"dx":0,"dy":0},{"dx":0,"dy":0},{"dx":0,"dy":0},{"dx":0,"dy":0},{"dx":0,"dy":0},{"dx":0,"dy":0},{"dx":-37,"dy":-25},{"dx":-33,"dy":-16},{"dx":-25,"dy":-9},{"dx":-7,"dy":0},{"dx":-2,"dy":3},{"dx":0,"dy":1},{"dx":0,"dy":2},{"dx":0,"dy":0},{"dx":0,"dy":0},{"dx":0,"dy":0},{"dx":0,"dy":0},{"dx":0,"dy":0},{"dx":0,"dy":0},{"dx":0,"dy":0},{"dx":0,"dy":0},{"dx":0,"dy":0},{"dx":0,"dy":0},{"dx":0,"dy":0},{"dx":0,"dy":0},{"dx":0,"dy":0},{"dx":0,"dy":0},{"dx":0,"dy":0},{"dx":0,"dy":0},{"dx":0,"dy":0},{"dx":0,"dy":0},{"dx":0,"dy":0},{"dx":0,"dy":0},{"dx":0,"dy":0},{"dx":0,"dy":0},{"dx":0,"dy":0},{"dx":0,"dy":0},{"dx":0,"dy":0},{"dx":0,"dy":0},{"dx":0,"dy":0},{"dx":0,"dy":0},{"dx":0,"dy":0},{"dx":0,"dy":0},{"dx":0,"dy":0},{"dx":0,"dy":0},{"dx":0,"dy":0},{"dx":0,"dy":0},{"dx":0,"dy":0},{"dx":0,"dy":0},{"dx":0,"dy":0},{"dx":0,"dy":0},{"dx":0,"dy":0},{"dx":0,"dy":0},{"dx":0,"dy":0},{"dx":0,"dy":0},{"dx":0,"dy":0},{"dx":0,"dy":0},{"dx":0,"dy":0},{"dx":0,"dy":0},{"dx":0,"dy":0},{"dx":0,"dy":0},{"dx":0,"dy":0},{"dx":0,"dy":0},{"dx":0,"dy":0},{"dx":0,"dy":0},{"dx":0,"dy":0},{"dx":0,"dy":0},{"dx":0,"dy":0},{"dx":0,"dy":0},{"dx":0,"dy":0},{"dx":0,"dy":0},{"dx":0,"dy":0},{"dx":36,"dy":-6},{"dx":26,"dy":-8},{"dx":40,"dy":-5},{"dx":0,"dy":0},{"dx":0,"dy":0},{"dx":0,"dy":0},{"dx":0,"dy":0},{"dx":0,"dy":0},{"dx":0,"dy":0},{"dx":45,"dy":-23},{"dx":33,"dy":-27},{"dx":13,"dy":-19},{"dx":3,"dy":-26},{"dx":-13,"dy":-32},{"dx":-35,"dy":-38},{"dx":-83,"dy":-61},{"dx":-69,"dy":-20},{"dx":-75,"dy":0},{"dx":-103,"dy":0},{"dx":-56,"dy":0},{"dx":-39,"dy":0},{"dx":-49,"dy":12},{"dx":-29,"dy":19},{"dx":-30,"dy":27},{"dx":-36,"dy":50},{"dx":-17,"dy":37},{"dx":-8,"dy":29},{"dx":-3,"dy":38},{"dx":0,"dy":21},{"dx":4,"dy":22},{"dx":11,"dy":42},{"dx":11,"dy":28},{"dx":17,"dy":31},{"dx":30,"dy":36},{"dx":21,"dy":19},{"dx":23,"dy":13},{"dx":25,"dy":5},{"dx":14,"dy":0},{"dx":13,"dy":-3},{"dx":11,"dy":-4},{"dx":9,"dy":-3},{"dx":11,"dy":-6},{"dx":20,"dy":-4},{"dx":20,"dy":-5},{"dx":16,"dy":-2},{"dx":12,"dy":-1},{"dx":6,"dy":1},{"dx":4,"dy":2},{"dx":6,"dy":9},{"dx":3,"dy":9},{"dx":0,"dy":8},{"dx":0,"dy":10},{"dx":-2,"dy":5},{"dx":0,"dy":0},{"dx":-2,"dy":5},{"dx":0,"dy":0},{"dx":0,"dy":0},{"dx":0,"dy":0},{"dx":0,"dy":0},{"dx":0,"dy":0},{"dx":0,"dy":0},{"dx":0,"dy":0},{"dx":0,"dy":0},{"dx":0,"dy":0},{"dx":-44,"dy":25},{"dx":-25,"dy":12},{"dx":-11,"dy":4},{"dx":-8,"dy":1},{"dx":0,"dy":0},{"dx":0,"dy":0},{"dx":0,"dy":0},{"dx":0,"dy":0},{"dx":0,"dy":0},{"dx":0,"dy":0},{"dx":-9,"dy":1},{"dx":-44,"dy":14},{"dx":-38,"dy":17},{"dx":-33,"dy":20},{"dx":-30,"dy":29},{"dx":-6,"dy":13},{"dx":-2,"dy":6},{"dx":9,"dy":20},{"dx":10,"dy":7},{"dx":5,"dy":1},{"dx":6,"dy":0},{"dx":0,"dy":0},{"dx":0,"dy":0},{"dx":0,"dy":0},{"dx":0,"dy":0},{"dx":0,"dy":0},{"dx":0,"dy":0},{"dx":1,"dy":8},{"dx":0,"dy":0},{"dx":0,"dy":0},{"dx":0,"dy":0},{"dx":0,"dy":0},{"dx":0,"dy":0},{"dx":0,"dy":0},{"dx":0,"dy":0},{"dx":0,"dy":0},{"dx":0,"dy":0},{"dx":0,"dy":0},{"dx":0,"dy":0},{"dx":0,"dy":0},{"dx":0,"dy":0},{"dx":0,"dy":0},{"dx":0,"dy":0},{"dx":0,"dy":0},{"dx":0,"dy":0},{"dx":16,"dy":9},{"dx":46,"dy":25},{"dx":71,"dy":38},{"dx":28,"dy":13},{"dx":16,"dy":4},{"dx":12,"dy":2},{"dx":14,"dy":-5},{"dx":1,"dy":-7},{"dx":-4,"dy":-8},{"dx":-5,"dy":-5},{"dx":0,"dy":0},{"dx":0,"dy":0},{"dx":0,"dy":0},{"dx":0,"dy":0},{"dx":0,"dy":0},{"dx":0,"dy":0},{"dx":0,"dy":0},{"dx":0,"dy":0},{"dx":0,"dy":0},{"dx":0,"dy":0},{"dx":14,"dy":3},{"dx":77,"dy":10},{"dx":64,"dy":0},{"dx":58,"dy":-7},{"dx":71,"dy":-17},{"dx":35,"dy":-20},{"dx":29,"dy":-17},{"dx":12,"dy":-9},{"dx":3,"dy":-3},{"dx":0,"dy":0},{"dx":-51,"dy":9},{"dx":-74,"dy":13},{"dx":-78,"dy":13},{"dx":-104,"dy":12},{"dx":-54,"dy":2},{"dx":-36,"dy":-4},{"dx":-37,"dy":-11},{"dx":-11,"dy":-7},{"dx":-8,"dy":-11},{"dx":-3,"dy":-21},{"dx":5,"dy":-19},{"dx":14,"dy":-28},{"dx":22,"dy":-29},{"dx":15,"dy":-15},{"dx":11,"dy":-9},{"dx":22,"dy":-8},{"dx":15,"dy":-1},{"dx":13,"dy":3},{"dx":24,"dy":9},{"dx":16,"dy":8},{"dx":14,"dy":6},{"dx":19,"dy":10},{"dx":9,"dy":5},{"dx":4,"dy":4},{"dx":12,"dy":10},{"dx":6,"dy":11},{"dx":4,"dy":11},{"dx":-1,"dy":21},{"dx":-9,"dy":19},{"dx":-17,"dy":24},{"dx":-28,"dy":33},{"dx":-13,"dy":18},{"dx":-5,"dy":13},{"dx":0,"dy":21},{"dx":6,"dy":14},{"dx":14,"dy":18},{"dx":28,"dy":24},{"dx":25,"dy":13},{"dx":28,"dy":9},{"dx":49,"dy":7},{"dx":35,"dy":1},{"dx":39,"dy":-5},{"dx":67,"dy":-15},{"dx":32,"dy":-7},{"dx":19,"dy":-5},{"dx":8,"dy":-5},{"dx":0,"dy":0},{"dx":-7,"dy":-8},{"dx":-58,"dy":-20},{"dx":-59,"dy":-16},{"dx":-55,"dy":-19},{"dx":-50,"dy":-23},{"dx":-18,"dy":-14},{"dx":-11,"dy":-12},{"dx":-7,"dy":-16},{"dx":-1,"dy":-15},{"dx":1,"dy":-17},{"dx":4,"dy":-37},{"dx":-2,"dy":-21},{"dx":-11,"dy":-27},{"dx":-28,"dy":-31},{"dx":-15,"dy":-12},{"dx":-15,"dy":-5},{"dx":-12,"dy":-4},{"dx":-4,"dy":-2},{"dx":-1,"dy":0},{"dx":12,"dy":-9},{"dx":30,"dy":-9},{"dx":43,"dy":-10},{"dx":60,"dy":-4},{"dx":27,"dy":5},{"dx":13,"dy":5},{"dx":7,"dy":7},{"dx":0,"dy":1},{"dx":-2,"dy":3},{"dx":0,"dy":0},{"dx":0,"dy":0},{"dx":0,"dy":0},{"dx":0,"dy":0},{"dx":0,"dy":0},{"dx":0,"dy":0},{"dx":0,"dy":0},{"dx":0,"dy":0},{"dx":0,"dy":0},{"dx":5,"dy":6},{"dx":14,"dy":25},{"dx":8,"dy":25},{"dx":1,"dy":42},{"dx":-4,"dy":28},{"dx":-8,"dy":30},{"dx":-16,"dy":46},{"dx":-6,"dy":33},{"dx":-3,"dy":26},{"dx":1,"dy":37},{"dx":6,"dy":17},{"dx":9,"dy":12},{"dx":17,"dy":11},{"dx":13,"dy":2},{"dx":17,"dy":0},{"dx":39,"dy":-12},{"dx":35,"dy":-13},{"dx":35,"dy":-14},{"dx":58,"dy":-22},{"dx":36,"dy":-13},{"dx":38,"dy":-14},{"dx":52,"dy":-21},{"dx":22,"dy":-12},{"dx":12,"dy":-9},{"dx":6,"dy":-8},{"dx":5,"dy":-15},{"dx":-1,"dy":-15},{"dx":-6,"dy":-22},{"dx":-5,"dy":-16},{"dx":-4,"dy":-15},{"dx":-6,"dy":-12},{"dx":-16,"dy":-20},{"dx":-25,"dy":-16},{"dx":-54,"dy":-24},{"dx":-38,"dy":-11},{"dx":-31,"dy":-6},{"dx":-17,"dy":-4},{"dx":-6,"dy":-1},{"dx":-1,"dy":0},{"dx":0,"dy":-1},{"dx":21,"dy":-17},{"dx":28,"dy":-20},{"dx":31,"dy":-25},{"dx":9,"dy":-12},{"dx":2,"dy":-5},{"dx":-2,"dy":-15},{"dx":-21,"dy":-16},{"dx":-33,"dy":-12},{"dx":-49,"dy":-14},{"dx":-78,"dy":-14},{"dx":-41,"dy":-7},{"dx":-18,"dy":-4},{"dx":-11,"dy":-3},{"dx":-1,"dy":0},{"dx":0,"dy":-1},{"dx":-1,"dy":0},{"dx":12,"dy":-2},{"dx":14,"dy":0},{"dx":13,"dy":-2},{"dx":5,"dy":-1},{"dx":1,"dy":0},{"dx":0,"dy":-6},{"dx":-9,"dy":-7},{"dx":-16,"dy":-10},{"dx":-44,"dy":-17},{"dx":-34,"dy":-9},{"dx":-39,"dy":-7},{"dx":-54,"dy":-10},{"dx":-28,"dy":-4},{"dx":-25,"dy":-3},{"dx":-25,"dy":-4},{"dx":-4,"dy":0},{"dx":-4,"dy":0},{"dx":-1,"dy":0},{"dx":5,"dy":-2},{"dx":30,"dy":-2},{"dx":91,"dy":-2},{"dx":65,"dy":4},{"dx":55,"dy":7},{"dx":50,"dy":10},{"dx":25,"dy":5},{"dx":18,"dy":5}],"trial_type":"plugin-moving-dots-2","trial_index":8,"plugin_version":"0.0.1","time_elapsed":99395},{"task":"fixation","rt":2376,"stimulus":"<div style=\"font-size:60px;\">+</div>","response":" ","trial_type":"html-keyboard-response","trial_index":9,"plugin_version":"2.1.0","time_elapsed":101772},{"task":"movingdots","control_change":0,"mouse_data":[{"dx":0,"dy":0},{"dx":0,"dy":0},{"dx":0,"dy":0},{"dx":0,"dy":0},{"dx":0,"dy":0},{"dx":0,"dy":0},{"dx":0,"dy":0},{"dx":0,"dy":0},{"dx":0,"dy":0},{"dx":0,"dy":0},{"dx":0,"dy":0},{"dx":0,"dy":0},{"dx":0,"dy":0},{"dx":0,"dy":0},{"dx":0,"dy":0},{"dx":0,"dy":0},{"dx":0,"dy":0},{"dx":0,"dy":0},{"dx":0,"dy":0},{"dx":0,"dy":0},{"dx":0,"dy":0},{"dx":0,"dy":0},{"dx":0,"dy":0},{"dx":0,"dy":0},{"dx":0,"dy":0},{"dx":0,"dy":0},{"dx":0,"dy":0},{"dx":0,"dy":0},{"dx":0,"dy":0},{"dx":0,"dy":0},{"dx":0,"dy":0},{"dx":0,"dy":0},{"dx":0,"dy":0},{"dx":0,"dy":0},{"dx":0,"dy":0},{"dx":0,"dy":0},{"dx":0,"dy":0},{"dx":0,"dy":0},{"dx":0,"dy":0},{"dx":0,"dy":0},{"dx":0,"dy":0},{"dx":0,"dy":0},{"dx":0,"dy":0},{"dx":0,"dy":0},{"dx":0,"dy":0},{"dx":0,"dy":0},{"dx":0,"dy":0},{"dx":0,"dy":0},{"dx":0,"dy":0},{"dx":0,"dy":0},{"dx":0,"dy":0},{"dx":0,"dy":0},{"dx":0,"dy":0},{"dx":0,"dy":0},{"dx":0,"dy":0},{"dx":0,"dy":0},{"dx":0,"dy":0},{"dx":0,"dy":0},{"dx":0,"dy":0},{"dx":0,"dy":0},{"dx":0,"dy":0},{"dx":0,"dy":0},{"dx":0,"dy":0},{"dx":0,"dy":0},{"dx":0,"dy":0},{"dx":0,"dy":0},{"dx":0,"dy":0},{"dx":0,"dy":0},{"dx":0,"dy":0},{"dx":0,"dy":0},{"dx":0,"dy":0},{"dx":0,"dy":0},{"dx":0,"dy":0},{"dx":0,"dy":0},{"dx":0,"dy":0},{"dx":0,"dy":0},{"dx":0,"dy":0},{"dx":0,"dy":0},{"dx":0,"dy":0},{"dx":0,"dy":0},{"dx":0,"dy":0},{"dx":0,"dy":0},{"dx":0,"dy":0},{"dx":0,"dy":0},{"dx":0,"dy":0},{"dx":0,"dy":0},{"dx":0,"dy":0},{"dx":0,"dy":0},{"dx":0,"dy":0},{"dx":0,"dy":0},{"dx":0,"dy":0},{"dx":0,"dy":0},{"dx":0,"dy":0},{"dx":0,"dy":0},{"dx":0,"dy":0},{"dx":0,"dy":0},{"dx":0,"dy":0},{"dx":0,"dy":0},{"dx":0,"dy":0},{"dx":0,"dy":0},{"dx":0,"dy":0},{"dx":0,"dy":0},{"dx":0,"dy":0},{"dx":0,"dy":0},{"dx":0,"dy":0},{"dx":0,"dy":0},{"dx":0,"dy":0},{"dx":0,"dy":0},{"dx":0,"dy":0},{"dx":0,"dy":0},{"dx":0,"dy":0},{"dx":0,"dy":0},{"dx":0,"dy":0},{"dx":0,"dy":0},{"dx":0,"dy":0},{"dx":1,"dy":0},{"dx":5,"dy":0},{"dx":4,"dy":4},{"dx":1,"dy":1},{"dx":0,"dy":0},{"dx":0,"dy":0},{"dx":0,"dy":0},{"dx":0,"dy":0},{"dx":0,"dy":0},{"dx":0,"dy":0},{"dx":0,"dy":0},{"dx":0,"dy":0},{"dx":0,"dy":0},{"dx":0,"dy":0},{"dx":0,"dy":0},{"dx":0,"dy":0},{"dx":0,"dy":0},{"dx":0,"dy":0},{"dx":0,"dy":0},{"dx":0,"dy":0},{"dx":0,"dy":0},{"dx":0,"dy":0},{"dx":4,"dy":-5},{"dx":5,"dy":-15},{"dx":2,"dy":-9},{"dx":0,"dy":-13},{"dx":-7,"dy":-17},{"dx":-8,"dy":-12},{"dx":-13,"dy":-10},{"dx":-13,"dy":-10},{"dx":-16,"dy":-12},{"dx":-9,"dy":-5},{"dx":-6,"dy":-5},{"dx":-5,"dy":-3},{"dx":0,"dy":-1},{"dx":-1,"dy":0},{"dx":-5,"dy":-1},{"dx":-10,"dy":0},{"dx":-12,"dy":1},{"dx":-19,"dy":1},{"dx":-13,"dy":0},{"dx":-14,"dy":-2},{"dx":-12,"dy":-5},{"dx":-6,"dy":-4},{"dx":-4,"dy":-6},{"dx":2,"dy":-20},{"dx":16,"dy":-20},{"dx":33,"dy":-24},{"dx":71,"dy":-35},{"dx":49,"dy":-12},{"dx":40,"dy":-3},{"dx":54,"dy":11},{"dx":23,"dy":11},{"dx":23,"dy":13},{"dx":24,"dy":15},{"dx":20,"dy":11},{"dx":19,"dy":12},{"dx":25,"dy":19},{"dx":16,"dy":15},{"dx":9,"dy":12},{"dx":6,"dy":12},{"dx":2,"dy":7},{"dx":1,"dy":7},{"dx":-2,"dy":16},{"dx":-7,"dy":12},{"dx":-15,"dy":17},{"dx":-46,"dy":45},{"dx":-39,"dy":35},{"dx":-28,"dy":27},{"dx":-32,"dy":33},{"dx":-11,"dy":12},{"dx":-3,"dy":5},{"dx":-5,"dy":13},{"dx":0,"dy":4},{"dx":3,"dy":5},{"dx":17,"dy":9},{"dx":26,"dy":4},{"dx":28,"dy":1},{"dx":42,"dy":-2},{"dx":28,"dy":-7},{"dx":19,"dy":-8},{"dx":18,"dy":-11},{"dx":26,"dy":-21},{"dx":12,"dy":-12},{"dx":17,"dy":-19},{"dx":4,"dy":-13},{"dx":1,"dy":-12},{"dx":-10,"dy":-23},{"dx":-21,"dy":-22},{"dx":-33,"dy":-26},{"dx":-54,"dy":-37},{"dx":-36,"dy":-20},{"dx":-37,"dy":-19},{"dx":-52,"dy":-26},{"dx":-34,"dy":-15},{"dx":-33,"dy":-11},{"dx":-47,"dy":-17},{"dx":-31,"dy":-10},{"dx":-26,"dy":-6},{"dx":-27,"dy":-3},{"dx":-16,"dy":0},{"dx":-14,"dy":0},{"dx":-23,"dy":3},{"dx":-11,"dy":4},{"dx":-6,"dy":1},{"dx":-7,"dy":2},{"dx":-4,"dy":1},{"dx":-1,"dy":0},{"dx":-3,"dy":-5},{"dx":1,"dy":-13},{"dx":6,"dy":-14},{"dx":7,"dy":-12},{"dx":4,"dy":-8},{"dx":0,"dy":-2},{"dx":0,"dy":-2},{"dx":-6,"dy":-2},{"dx":-11,"dy":4},{"dx":-25,"dy":15},{"dx":-22,"dy":16},{"dx":-22,"dy":25},{"dx":-30,"dy":40},{"dx":-15,"dy":28},{"dx":-13,"dy":31},{"dx":-11,"dy":42},{"dx":-2,"dy":24},{"dx":1,"dy":19},{"dx":10,"dy":30},{"dx":12,"dy":21},{"dx":14,"dy":21},{"dx":33,"dy":33},{"dx":22,"dy":17},{"dx":16,"dy":11},{"dx":14,"dy":7},{"dx":17,"dy":5},{"dx":10,"dy":2},{"dx":14,"dy":1},{"dx":23,"dy":2},{"dx":20,"dy":4},{"dx":14,"dy":2},{"dx":9,"dy":3},{"dx":1,"dy":0},{"dx":1,"dy":1},{"dx":1,"dy":1},{"dx":0,"dy":1},{"dx":0,"dy":1},{"dx":-3,"dy":12},{"dx":-2,"dy":6},{"dx":0,"dy":5},{"dx":2,"dy":7},{"dx":13,"dy":9},{"dx":25,"dy":7},{"dx":62,"dy":5},{"dx":36,"dy":1},{"dx":35,"dy":1},{"dx":29,"dy":0},{"dx":12,"dy":0},{"dx":7,"dy":0},{"dx":1,"dy":0},{"dx":1,"dy":0},{"dx":2,"dy":-6},{"dx":-15,"dy":-19},{"dx":-23,"dy":-15},{"dx":-26,"dy":-16},{"dx":-38,"dy":-19},{"dx":-24,"dy":-12},{"dx":-24,"dy":-11},{"dx":-24,"dy":-12},{"dx":-13,"dy":-7},{"dx":-6,"dy":-3},{"dx":-5,"dy":-4},{"dx":-2,"dy":-4},{"dx":10,"dy":-8},{"dx":50,"dy":-16},{"dx":55,"dy":-7},{"dx":59,"dy":-2},{"dx":79,"dy":-2},{"dx":41,"dy":0},{"dx":28,"dy":1},{"dx":25,"dy":3},{"dx":10,"dy":2},{"dx":8,"dy":2},{"dx":3,"dy":0},{"dx":4,"dy":1},{"dx":6,"dy":1},{"dx":6,"dy":0},{"dx":0,"dy":0},{"dx":4,"dy":0},{"dx":4,"dy":-5},{"dx":1,"dy":-6},{"dx":0,"dy":-11},{"dx":-3,"dy":-17},{"dx":-3,"dy":-14},{"dx":-2,"dy":-5},{"dx":-2,"dy":-14},{"dx":-2,"dy":-5},{"dx":-1,"dy":-5},{"dx":-4,"dy":-6},{"dx":-11,"dy":-13},{"dx":-14,"dy":-12},{"dx":-22,"dy":-17},{"dx":-8,"dy":-8},{"dx":-3,"dy":-5},{"dx":-3,"dy":-7},{"dx":0,"dy":-1},{"dx":0,"dy":-5},{"dx":1,"dy":-6},{"dx":4,"dy":-4},{"dx":5,"dy":-4},{"dx":20,"dy":-4},{"dx":10,"dy":-1},{"dx":10,"dy":0},{"dx":12,"dy":0},{"dx":4,"dy":1},{"dx":5,"dy":3},{"dx":9,"dy":9},{"dx":7,"dy":12},{"dx":8,"dy":14},{"dx":9,"dy":19},{"dx":4,"dy":11},{"dx":3,"dy":11},{"dx":4,"dy":20},{"dx":3,"dy":13},{"dx":3,"dy":17},{"dx":4,"dy":24},{"dx":2,"dy":16},{"dx":3,"dy":16},{"dx":3,"dy":21},{"dx":2,"dy":10},{"dx":1,"dy":8},{"dx":0,"dy":6},{"dx":0,"dy":0},{"dx":7,"dy":0},{"dx":17,"dy":-8},{"dx":12,"dy":-9},{"dx":12,"dy":-10},{"dx":14,"dy":-18},{"dx":7,"dy":-13},{"dx":5,"dy":-14},{"dx":2,"dy":-25},{"dx":-1,"dy":-16},{"dx":-6,"dy":-20},{"dx":-8,"dy":-25},{"dx":-6,"dy":-12},{"dx":-7,"dy":-11},{"dx":-10,"dy":-16},{"dx":-7,"dy":-8},{"dx":-13,"dy":-7},{"dx":-8,"dy":-2},{"dx":-10,"dy":0},{"dx":0,"dy":0},{"dx":0,"dy":0},{"dx":0,"dy":0},{"dx":0,"dy":0},{"dx":0,"dy":0},{"dx":0,"dy":0},{"dx":0,"dy":0},{"dx":0,"dy":0},{"dx":0,"dy":0},{"dx":0,"dy":0},{"dx":0,"dy":0},{"dx":3,"dy":-20},{"dx":6,"dy":-24},{"dx":6,"dy":-29},{"dx":3,"dy":-13},{"dx":2,"dy":-7},{"dx":0,"dy":-2},{"dx":-1,"dy":0},{"dx":0,"dy":0},{"dx":0,"dy":0},{"dx":0,"dy":0},{"dx":0,"dy":0},{"dx":0,"dy":0},{"dx":0,"dy":0},{"dx":0,"dy":0},{"dx":0,"dy":0},{"dx":3,"dy":43},{"dx":0,"dy":53},{"dx":-6,"dy":36},{"dx":-13,"dy":27},{"dx":-12,"dy":12},{"dx":-22,"dy":19},{"dx":-43,"dy":39},{"dx":-28,"dy":26},{"dx":-23,"dy":27},{"dx":-26,"dy":35},{"dx":-16,"dy":18},{"dx":-15,"dy":13},{"dx":-29,"dy":14},{"dx":-20,"dy":8},{"dx":-24,"dy":5},{"dx":-29,"dy":5},{"dx":-17,"dy":1},{"dx":-19,"dy":0},{"dx":-22,"dy":-2},{"dx":-17,"dy":-3},{"dx":-14,"dy":-3},{"dx":-27,"dy":-10},{"dx":-20,"dy":-10},{"dx":-19,"dy":-11},{"dx":-31,"dy":-24},{"dx":-22,"dy":-26},{"dx":-15,"dy":-27},{"dx":-13,"dy":-58},{"dx":6,"dy":-45},{"dx":19,"dy":-51},{"dx":31,"dy":-57},{"dx":18,"dy":-31},{"dx":15,"dy":-21},{"dx":14,"dy":-22},{"dx":5,"dy":-11},{"dx":3,"dy":-11},{"dx":3,"dy":-17},{"dx":1,"dy":-6},{"dx":0,"dy":-8},{"dx":-7,"dy":-15},{"dx":-3,"dy":-3},{"dx":-5,"dy":-2},{"dx":-19,"dy":2},{"dx":-17,"dy":6},{"dx":-19,"dy":9},{"dx":-32,"dy":13},{"dx":-20,"dy":7},{"dx":-16,"dy":6},{"dx":-20,"dy":7},{"dx":-13,"dy":3},{"dx":-12,"dy":3},{"dx":-13,"dy":3},{"dx":-4,"dy":2},{"dx":-1,"dy":0},{"dx":0,"dy":1},{"dx":0,"dy":2},{"dx":0,"dy":0},{"dx":0,"dy":0},{"dx":0,"dy":0},{"dx":0,"dy":0},{"dx":0,"dy":0},{"dx":0,"dy":0},{"dx":0,"dy":0}],"trial_type":"plugin-moving-dots-2","trial_index":10,"plugin_version":"0.0.1","time_elapsed":109278},{"task":"fixation","rt":2234,"stimulus":"<div style=\"font-size:60px;\">+</div>","response":" ","trial_type":"html-keyboard-response","trial_index":11,"plugin_version":"2.1.0","time_elapsed":111513},{"task":"movingdots","control_change":0,"mouse_data":[{"dx":0,"dy":0},{"dx":0,"dy":0},{"dx":0,"dy":0},{"dx":0,"dy":0},{"dx":0,"dy":0},{"dx":0,"dy":0},{"dx":0,"dy":0},{"dx":0,"dy":0},{"dx":0,"dy":0},{"dx":0,"dy":0},{"dx":0,"dy":0},{"dx":0,"dy":0},{"dx":0,"dy":0},{"dx":0,"dy":0},{"dx":0,"dy":0},{"dx":0,"dy":0},{"dx":0,"dy":0},{"dx":0,"dy":0},{"dx":0,"dy":0},{"dx":0,"dy":0},{"dx":0,"dy":0},{"dx":0,"dy":0},{"dx":0,"dy":0},{"dx":0,"dy":0},{"dx":0,"dy":0},{"dx":0,"dy":0},{"dx":0,"dy":0},{"dx":0,"dy":0},{"dx":0,"dy":0},{"dx":0,"dy":0},{"dx":0,"dy":0},{"dx":0,"dy":0},{"dx":12,"dy":-27},{"dx":11,"dy":-12},{"dx":12,"dy":-8},{"dx":15,"dy":-7},{"dx":9,"dy":-3},{"dx":11,"dy":-4},{"dx":15,"dy":-6},{"dx":5,"dy":-2},{"dx":7,"dy":-2},{"dx":3,"dy":0},{"dx":0,"dy":0},{"dx":0,"dy":0},{"dx":0,"dy":0},{"dx":0,"dy":0},{"dx":0,"dy":0},{"dx":0,"dy":0},{"dx":0,"dy":0},{"dx":0,"dy":0},{"dx":0,"dy":0},{"dx":0,"dy":0},{"dx":0,"dy":0},{"dx":0,"dy":0},{"dx":0,"dy":0},{"dx":0,"dy":0},{"dx":0,"dy":0},{"dx":0,"dy":0},{"dx":0,"dy":0},{"dx":0,"dy":0},{"dx":0,"dy":0},{"dx":0,"dy":0},{"dx":0,"dy":0},{"dx":0,"dy":0},{"dx":0,"dy":0},{"dx":0,"dy":0},{"dx":0,"dy":0},{"dx":0,"dy":0},{"dx":0,"dy":0},{"dx":0,"dy":0},{"dx":0,"dy":0},{"dx":0,"dy":0},{"dx":0,"dy":0},{"dx":0,"dy":0},{"dx":0,"dy":0},{"dx":0,"dy":0},{"dx":0,"dy":0},{"dx":0,"dy":0},{"dx":0,"dy":0},{"dx":0,"dy":0},{"dx":0,"dy":0},{"dx":0,"dy":0},{"dx":0,"dy":0},{"dx":0,"dy":0},{"dx":0,"dy":0},{"dx":0,"dy":0},{"dx":0,"dy":0},{"dx":0,"dy":0},{"dx":0,"dy":0},{"dx":0,"dy":0},{"dx":0,"dy":0},{"dx":0,"dy":0},{"dx":0,"dy":0},{"dx":0,"dy":0},{"dx":0,"dy":0},{"dx":0,"dy":0},{"dx":0,"dy":0},{"dx":0,"dy":0},{"dx":0,"dy":0},{"dx":0,"dy":0},{"dx":0,"dy":0},{"dx":0,"dy":0},{"dx":0,"dy":0},{"dx":0,"dy":0},{"dx":0,"dy":0},{"dx":0,"dy":0},{"dx":0,"dy":0},{"dx":0,"dy":0},{"dx":0,"dy":0},{"dx":0,"dy":0},{"dx":0,"dy":0},{"dx":0,"dy":0},{"dx":0,"dy":0},{"dx":0,"dy":0},{"dx":0,"dy":0},{"dx":0,"dy":0},{"dx":0,"dy":0},{"dx":0,"dy":0},{"dx":0,"dy":0},{"dx":0,"dy":0},{"dx":0,"dy":0},{"dx":0,"dy":0},{"dx":0,"dy":0},{"dx":0,"dy":0},{"dx":0,"dy":0},{"dx":0,"dy":0},{"dx":0,"dy":0},{"dx":0,"dy":0},{"dx":0,"dy":0},{"dx":0,"dy":0},{"dx":0,"dy":0},{"dx":0,"dy":0},{"dx":0,"dy":0},{"dx":0,"dy":0},{"dx":0,"dy":0},{"dx":0,"dy":0},{"dx":0,"dy":0},{"dx":0,"dy":0},{"dx":0,"dy":0},{"dx":0,"dy":0},{"dx":-11,"dy":-2},{"dx":-25,"dy":-3},{"dx":-20,"dy":0},{"dx":-25,"dy":3},{"dx":-16,"dy":2},{"dx":-17,"dy":7},{"dx":-20,"dy":10},{"dx":-9,"dy":7},{"dx":-11,"dy":7},{"dx":-11,"dy":16},{"dx":-4,"dy":10},{"dx":0,"dy":13},{"dx":11,"dy":19},{"dx":23,"dy":17},{"dx":40,"dy":17},{"dx":79,"dy":15},{"dx":59,"dy":3},{"dx":52,"dy":-1},{"dx":66,"dy":-8},{"dx":29,"dy":-6},{"dx":20,"dy":-7},{"dx":20,"dy":-11},{"dx":9,"dy":-8},{"dx":7,"dy":-8},{"dx":3,"dy":-9},{"dx":0,"dy":-8},{"dx":-6,"dy":-14},{"dx":-17,"dy":-20},{"dx":-24,"dy":-18},{"dx":-27,"dy":-19},{"dx":-47,"dy":-27},{"dx":-29,"dy":-19},{"dx":-29,"dy":-18},{"dx":-40,"dy":-21},{"dx":-29,"dy":-14},{"dx":-29,"dy":-12},{"dx":-49,"dy":-12},{"dx":-37,"dy":-5},{"dx":-36,"dy":-1},{"dx":-52,"dy":3},{"dx":-30,"dy":4},{"dx":-27,"dy":6},{"dx":-23,"dy":6},{"dx":-4,"dy":2},{"dx":-5,"dy":2},{"dx":-2,"dy":0},{"dx":0,"dy":1},{"dx":0,"dy":0},{"dx":-1,"dy":2},{"dx":0,"dy":4},{"dx":-8,"dy":9},{"dx":-17,"dy":14},{"dx":-19,"dy":11},{"dx":-22,"dy":13},{"dx":-26,"dy":17},{"dx":-15,"dy":11},{"dx":-10,"dy":11},{"dx":-7,"dy":9},{"dx":-2,"dy":8},{"dx":0,"dy":7},{"dx":3,"dy":17},{"dx":2,"dy":10},{"dx":4,"dy":8},{"dx":11,"dy":9},{"dx":16,"dy":2},{"dx":40,"dy":-6},{"dx":80,"dy":-29},{"dx":57,"dy":-28},{"dx":45,"dy":-26},{"dx":25,"dy":-17},{"dx":5,"dy":-3},{"dx":1,"dy":-1},{"dx":0,"dy":-1},{"dx":-9,"dy":-4},{"dx":-14,"dy":-2},{"dx":-29,"dy":-2},{"dx":-18,"dy":-2},{"dx":-17,"dy":0},{"dx":-22,"dy":0},{"dx":-15,"dy":3},{"dx":-16,"dy":6},{"dx":-23,"dy":16},{"dx":-17,"dy":17},{"dx":-16,"dy":20},{"dx":-14,"dy":21},{"dx":-13,"dy":31},{"dx":-4,"dy":17},{"dx":-2,"dy":13},{"dx":0,"dy":12},{"dx":0,"dy":9},{"dx":1,"dy":7},{"dx":7,"dy":18},{"dx":7,"dy":12},{"dx":7,"dy":12},{"dx":13,"dy":19},{"dx":9,"dy":11},{"dx":10,"dy":13},{"dx":13,"dy":17},{"dx":15,"dy":15},{"dx":15,"dy":14},{"dx":29,"dy":23},{"dx":25,"dy":15},{"dx":31,"dy":14},{"dx":54,"dy":18},{"dx":36,"dy":10},{"dx":31,"dy":7},{"dx":47,"dy":7},{"dx":23,"dy":2},{"dx":24,"dy":-1},{"dx":25,"dy":-6},{"dx":13,"dy":-6},{"dx":8,"dy":-7},{"dx":4,"dy":-6},{"dx":-2,"dy":-6},{"dx":-12,"dy":-4},{"dx":-20,"dy":-2},{"dx":-16,"dy":1},{"dx":-11,"dy":3},{"dx":-7,"dy":3},{"dx":-1,"dy":1},{"dx":-1,"dy":6},{"dx":11,"dy":5},{"dx":23,"dy":0},{"dx":35,"dy":-2},{"dx":56,"dy":-11},{"dx":36,"dy":-11},{"dx":30,"dy":-10},{"dx":27,"dy":-11},{"dx":6,"dy":-4},{"dx":3,"dy":-3},{"dx":1,"dy":-7},{"dx":-14,"dy":-5},{"dx":-38,"dy":-7},{"dx":-86,"dy":-12},{"dx":-64,"dy":-8},{"dx":-63,"dy":-7},{"dx":-86,"dy":-13},{"dx":-47,"dy":-12},{"dx":-38,"dy":-13},{"dx":-47,"dy":-18},{"dx":-25,"dy":-12},{"dx":-24,"dy":-15},{"dx":-35,"dy":-24},{"dx":-26,"dy":-18},{"dx":-21,"dy":-15},{"dx":-33,"dy":-26},{"dx":-16,"dy":-17},{"dx":-11,"dy":-15},{"dx":-6,"dy":-24},{"dx":-1,"dy":-17},{"dx":2,"dy":-18},{"dx":9,"dy":-29},{"dx":10,"dy":-25},{"dx":10,"dy":-17},{"dx":19,"dy":-27},{"dx":10,"dy":-12},{"dx":9,"dy":-9},{"dx":11,"dy":-8},{"dx":7,"dy":-3},{"dx":9,"dy":-2},{"dx":21,"dy":1},{"dx":21,"dy":3},{"dx":33,"dy":3},{"dx":39,"dy":4},{"dx":18,"dy":2},{"dx":11,"dy":2},{"dx":10,"dy":3},{"dx":8,"dy":5},{"dx":6,"dy":5},{"dx":5,"dy":15},{"dx":-1,"dy":13},{"dx":-5,"dy":14},{"dx":-4,"dy":18},{"dx":2,"dy":9},{"dx":7,"dy":9},{"dx":18,"dy":11},{"dx":26,"dy":8},{"dx":32,"dy":7},{"dx":52,"dy":10},{"dx":23,"dy":4},{"dx":13,"dy":4},{"dx":11,"dy":3},{"dx":6,"dy":5},{"dx":5,"dy":4},{"dx":10,"dy":11},{"dx":7,"dy":6},{"dx":10,"dy":8},{"dx":23,"dy":13},{"dx":23,"dy":6},{"dx":24,"dy":7},{"dx":34,"dy":9},{"dx":24,"dy":6},{"dx":23,"dy":5},{"dx":28,"dy":3},{"dx":15,"dy":-1},{"dx":11,"dy":-3},{"dx":10,"dy":-5},{"dx":5,"dy":-6},{"dx":3,"dy":-6},{"dx":1,"dy":-7},{"dx":1,"dy":-13},{"dx":-1,"dy":-5},{"dx":-1,"dy":-6},{"dx":-4,"dy":-7},{"dx":-6,"dy":-3},{"dx":-23,"dy":-1},{"dx":-26,"dy":3},{"dx":-27,"dy":8},{"dx":-17,"dy":9},{"dx":-13,"dy":15},{"dx":-4,"dy":11},{"dx":-1,"dy":9},{"dx":3,"dy":17},{"dx":8,"dy":10},{"dx":12,"dy":8},{"dx":27,"dy":11},{"dx":16,"dy":4},{"dx":15,"dy":0},{"dx":25,"dy":-7},{"dx":17,"dy":-10},{"dx":23,"dy":-14},{"dx":27,"dy":-24},{"dx":10,"dy":-12},{"dx":7,"dy":-13},{"dx":5,"dy":-19},{"dx":0,"dy":-13},{"dx":-1,"dy":-12},{"dx":-6,"dy":-22},{"dx":-8,"dy":-18},{"dx":-8,"dy":-17},{"dx":-14,"dy":-32},{"dx":-12,"dy":-21},{"dx":-11,"dy":-18},{"dx":-16,"dy":-26},{"dx":-9,"dy":-15},{"dx":-10,"dy":-13},{"dx":-16,"dy":-18},{"dx":-12,"dy":-10},{"dx":-14,"dy":-9},{"dx":-29,"dy":-11},{"dx":-24,"dy":-4},{"dx":-28,"dy":-4},{"dx":-43,"dy":-2},{"dx":-28,"dy":2},{"dx":-27,"dy":7},{"dx":-35,"dy":15},{"dx":-20,"dy":13},{"dx":-20,"dy":14},{"dx":-21,"dy":20},{"dx":-14,"dy":15},{"dx":-11,"dy":13},{"dx":-11,"dy":16},{"dx":-4,"dy":11},{"dx":-2,"dy":7},{"dx":0,"dy":9},{"dx":5,"dy":13},{"dx":11,"dy":9},{"dx":29,"dy":14},{"dx":23,"dy":5},{"dx":26,"dy":3},{"dx":35,"dy":-1},{"dx":22,"dy":-4},{"dx":15,"dy":-6},{"dx":17,"dy":-9},{"dx":4,"dy":-4},{"dx":5,"dy":-6},{"dx":3,"dy":-12},{"dx":-1,"dy":-6},{"dx":-7,"dy":-7},{"dx":-19,"dy":-12},{"dx":-20,"dy":-10},{"dx":-27,"dy":-10},{"dx":-40,"dy":-14},{"dx":-28,"dy":-8},{"dx":-28,"dy":-8},{"dx":-40,"dy":-6},{"dx":-23,"dy":-2},{"dx":-23,"dy":0},{"dx":-32,"dy":3},{"dx":-21,"dy":4},{"dx":-17,"dy":6},{"dx":-25,"dy":12},{"dx":-12,"dy":7},{"dx":-9,"dy":8},{"dx":-12,"dy":14},{"dx":-4,"dy":8},{"dx":-4,"dy":9},{"dx":-1,"dy":6},{"dx":0,"dy":7},{"dx":1,"dy":5},{"dx":5,"dy":7},{"dx":0,"dy":1},{"dx":1,"dy":1},{"dx":1,"dy":1},{"dx":0,"dy":0},{"dx":0,"dy":0},{"dx":-3,"dy":0},{"dx":-5,"dy":-2},{"dx":-6,"dy":-5},{"dx":-7,"dy":-6},{"dx":-3,"dy":-6},{"dx":-1,"dy":-7},{"dx":6,"dy":-16},{"dx":12,"dy":-10},{"dx":18,"dy":-9},{"dx":25,"dy":-7},{"dx":18,"dy":0},{"dx":14,"dy":3},{"dx":17,"dy":9},{"dx":11,"dy":6},{"dx":8,"dy":7},{"dx":5,"dy":4},{"dx":4,"dy":4}],"trial_type":"plugin-moving-dots-2","trial_index":12,"plugin_version":"0.0.1","time_elapsed":119029},{"task":"fixation","rt":2179,"stimulus":"<div style=\"font-size:60px;\">+</div>","response":" ","trial_type":"html-keyboard-response","trial_index":13,"plugin_version":"2.1.0","time_elapsed":121210},{"task":"movingdots","control_change":0,"mouse_data":[{"dx":0,"dy":0},{"dx":0,"dy":0},{"dx":0,"dy":0},{"dx":0,"dy":0},{"dx":0,"dy":0},{"dx":0,"dy":0},{"dx":0,"dy":0},{"dx":0,"dy":0},{"dx":0,"dy":0},{"dx":0,"dy":0},{"dx":0,"dy":0},{"dx":0,"dy":0},{"dx":0,"dy":0},{"dx":0,"dy":0},{"dx":0,"dy":0},{"dx":0,"dy":0},{"dx":0,"dy":0},{"dx":0,"dy":0},{"dx":0,"dy":0},{"dx":0,"dy":0},{"dx":0,"dy":0},{"dx":0,"dy":0},{"dx":0,"dy":0},{"dx":0,"dy":0},{"dx":0,"dy":0},{"dx":0,"dy":0},{"dx":0,"dy":0},{"dx":0,"dy":0},{"dx":0,"dy":0},{"dx":0,"dy":0},{"dx":0,"dy":0},{"dx":0,"dy":0},{"dx":0,"dy":0},{"dx":0,"dy":0},{"dx":0,"dy":0},{"dx":0,"dy":0},{"dx":0,"dy":0},{"dx":0,"dy":0},{"dx":0,"dy":0},{"dx":0,"dy":0},{"dx":0,"dy":0},{"dx":0,"dy":0},{"dx":0,"dy":0},{"dx":0,"dy":0},{"dx":0,"dy":0},{"dx":0,"dy":0},{"dx":0,"dy":0},{"dx":0,"dy":0},{"dx":0,"dy":0},{"dx":0,"dy":0},{"dx":0,"dy":0},{"dx":0,"dy":0},{"dx":0,"dy":0},{"dx":0,"dy":0},{"dx":0,"dy":0},{"dx":0,"dy":0},{"dx":0,"dy":0},{"dx":0,"dy":0},{"dx":0,"dy":0},{"dx":0,"dy":0},{"dx":0,"dy":0},{"dx":0,"dy":0},{"dx":0,"dy":0},{"dx":0,"dy":0},{"dx":0,"dy":0},{"dx":0,"dy":0},{"dx":0,"dy":0},{"dx":0,"dy":0},{"dx":0,"dy":0},{"dx":0,"dy":0},{"dx":0,"dy":0},{"dx":0,"dy":0},{"dx":0,"dy":0},{"dx":0,"dy":0},{"dx":0,"dy":0},{"dx":0,"dy":0},{"dx":0,"dy":0},{"dx":0,"dy":0},{"dx":0,"dy":0},{"dx":0,"dy":0},{"dx":0,"dy":0},{"dx":0,"dy":0},{"dx":0,"dy":0},{"dx":0,"dy":0},{"dx":0,"dy":0},{"dx":0,"dy":0},{"dx":0,"dy":0},{"dx":0,"dy":0},{"dx":0,"dy":0},{"dx":0,"dy":0},{"dx":0,"dy":0},{"dx":0,"dy":0},{"dx":0,"dy":0},{"dx":0,"dy":0},{"dx":0,"dy":0},{"dx":0,"dy":0},{"dx":0,"dy":0},{"dx":0,"dy":0},{"dx":0,"dy":0},{"dx":0,"dy":0},{"dx":0,"dy":0},{"dx":0,"dy":0},{"dx":0,"dy":0},{"dx":0,"dy":0},{"dx":0,"dy":0},{"dx":0,"dy":0},{"dx":0,"dy":0},{"dx":0,"dy":0},{"dx":0,"dy":0},{"dx":0,"dy":0},{"dx":0,"dy":0},{"dx":0,"dy":0},{"dx":0,"dy":0},{"dx":0,"dy":0},{"dx":0,"dy":0},{"dx":0,"dy":0},{"dx":0,"dy":0},{"dx":0,"dy":0},{"dx":0,"dy":0},{"dx":0,"dy":0},{"dx":0,"dy":0},{"dx":0,"dy":0},{"dx":0,"dy":0},{"dx":0,"dy":0},{"dx":0,"dy":0},{"dx":0,"dy":0},{"dx":0,"dy":0},{"dx":0,"dy":0},{"dx":0,"dy":0},{"dx":0,"dy":0},{"dx":0,"dy":0},{"dx":0,"dy":0},{"dx":0,"dy":0},{"dx":4,"dy":-1},{"dx":13,"dy":-3},{"dx":11,"dy":-3},{"dx":4,"dy":0},{"dx":5,"dy":1},{"dx":5,"dy":1},{"dx":4,"dy":3},{"dx":6,"dy":1},{"dx":9,"dy":7},{"dx":2,"dy":5},{"dx":3,"dy":4},{"dx":2,"dy":5},{"dx":0,"dy":6},{"dx":0,"dy":6},{"dx":-7,"dy":15},{"dx":-9,"dy":10},{"dx":-11,"dy":9},{"dx":-18,"dy":16},{"dx":-12,"dy":10},{"dx":-13,"dy":9},{"dx":-20,"dy":14},{"dx":-12,"dy":8},{"dx":-10,"dy":6},{"dx":-12,"dy":6},{"dx":-7,"dy":3},{"dx":-3,"dy":0},{"dx":-6,"dy":2},{"dx":-4,"dy":0},{"dx":-5,"dy":0},{"dx":-6,"dy":-2},{"dx":-1,"dy":0},{"dx":-3,"dy":-3},{"dx":-4,"dy":-4},{"dx":-3,"dy":-5},{"dx":-1,"dy":-5},{"dx":0,"dy":-7},{"dx":0,"dy":-10},{"dx":4,"dy":-14},{"dx":6,"dy":-16},{"dx":5,"dy":-10},{"dx":4,"dy":-7},{"dx":5,"dy":-5},{"dx":6,"dy":-4},{"dx":5,"dy":-4},{"dx":14,"dy":-4},{"dx":5,"dy":0},{"dx":7,"dy":-1},{"dx":6,"dy":0},{"dx":4,"dy":1},{"dx":1,"dy":0},{"dx":3,"dy":3},{"dx":2,"dy":6},{"dx":0,"dy":6},{"dx":0,"dy":5},{"dx":-2,"dy":13},{"dx":0,"dy":6},{"dx":0,"dy":8},{"dx":0,"dy":8},{"dx":2,"dy":7},{"dx":6,"dy":14},{"dx":9,"dy":13},{"dx":8,"dy":10},{"dx":7,"dy":9},{"dx":10,"dy":11},{"dx":10,"dy":6},{"dx":8,"dy":6},{"dx":15,"dy":4},{"dx":9,"dy":2},{"dx":12,"dy":1},{"dx":17,"dy":-3},{"dx":13,"dy":-3},{"dx":12,"dy":-4},{"dx":15,"dy":-8},{"dx":10,"dy":-6},{"dx":10,"dy":-6},{"dx":14,"dy":-10},{"dx":7,"dy":-7},{"dx":7,"dy":-7},{"dx":4,"dy":-6},{"dx":4,"dy":-8},{"dx":3,"dy":-8},{"dx":5,"dy":-14},{"dx":3,"dy":-10},{"dx":3,"dy":-10},{"dx":1,"dy":-10},{"dx":1,"dy":-8},{"dx":2,"dy":-20},{"dx":-1,"dy":-11},{"dx":-3,"dy":-11},{"dx":-6,"dy":-14},{"dx":-6,"dy":-12},{"dx":-5,"dy":-11},{"dx":-10,"dy":-14},{"dx":-8,"dy":-8},{"dx":-9,"dy":-6},{"dx":-9,"dy":-6},{"dx":-18,"dy":-7},{"dx":-14,"dy":-6},{"dx":-21,"dy":-5},{"dx":-13,"dy":-3},{"dx":-13,"dy":-3},{"dx":-14,"dy":-2},{"dx":-18,"dy":-4},{"dx":-16,"dy":-2},{"dx":-14,"dy":-1},{"dx":-21,"dy":-3},{"dx":-13,"dy":-2},{"dx":-11,"dy":-2},{"dx":-17,"dy":-3},{"dx":-10,"dy":-2},{"dx":-11,"dy":-3},{"dx":-12,"dy":-2},{"dx":-9,"dy":-3},{"dx":-9,"dy":-1},{"dx":-8,"dy":-1},{"dx":-7,"dy":0},{"dx":-5,"dy":0},{"dx":-11,"dy":2},{"dx":-6,"dy":3},{"dx":-4,"dy":3},{"dx":-3,"dy":4},{"dx":-2,"dy":5},{"dx":0,"dy":6},{"dx":8,"dy":18},{"dx":9,"dy":11},{"dx":13,"dy":13},{"dx":14,"dy":12},{"dx":5,"dy":4},{"dx":3,"dy":3},{"dx":2,"dy":5},{"dx":1,"dy":7},{"dx":0,"dy":6},{"dx":-9,"dy":8},{"dx":-8,"dy":7},{"dx":-11,"dy":8},{"dx":-20,"dy":11},{"dx":-11,"dy":6},{"dx":-11,"dy":7},{"dx":-17,"dy":9},{"dx":-11,"dy":5},{"dx":-9,"dy":4},{"dx":-14,"dy":6},{"dx":-5,"dy":2},{"dx":-7,"dy":2},{"dx":-11,"dy":0},{"dx":-4,"dy":0},{"dx":-8,"dy":-3},{"dx":-15,"dy":-6},{"dx":-9,"dy":-5},{"dx":-7,"dy":-3},{"dx":-11,"dy":-7},{"dx":-8,"dy":-4},{"dx":-7,"dy":-7},{"dx":-5,"dy":-5},{"dx":-5,"dy":-6},{"dx":-4,"dy":-6},{"dx":-5,"dy":-10},{"dx":-3,"dy":-6},{"dx":-2,"dy":-5},{"dx":-2,"dy":-7},{"dx":-2,"dy":-6},{"dx":0,"dy":-6},{"dx":3,"dy":-16},{"dx":8,"dy":-12},{"dx":9,"dy":-13},{"dx":10,"dy":-12},{"dx":8,"dy":-7},{"dx":8,"dy":-6},{"dx":13,"dy":-10},{"dx":7,"dy":-7},{"dx":10,"dy":-7},{"dx":19,"dy":-11},{"dx":11,"dy":-7},{"dx":12,"dy":-6},{"dx":20,"dy":-6},{"dx":15,"dy":-3},{"dx":19,"dy":-3},{"dx":27,"dy":-3},{"dx":16,"dy":-1},{"dx":15,"dy":-1},{"dx":19,"dy":0},{"dx":14,"dy":2},{"dx":13,"dy":3},{"dx":19,"dy":2},{"dx":12,"dy":2},{"dx":13,"dy":1},{"dx":16,"dy":2},{"dx":8,"dy":2},{"dx":7,"dy":2},{"dx":8,"dy":2},{"dx":7,"dy":2},{"dx":6,"dy":2},{"dx":8,"dy":5},{"dx":5,"dy":3},{"dx":4,"dy":3},{"dx":6,"dy":3},{"dx":6,"dy":4},{"dx":6,"dy":5},{"dx":16,"dy":11},{"dx":10,"dy":8},{"dx":11,"dy":8},{"dx":17,"dy":12},{"dx":13,"dy":10},{"dx":11,"dy":9},{"dx":15,"dy":11},{"dx":7,"dy":7},{"dx":6,"dy":7},{"dx":4,"dy":5},{"dx":3,"dy":6},{"dx":2,"dy":6},{"dx":2,"dy":11},{"dx":1,"dy":7},{"dx":0,"dy":6},{"dx":0,"dy":6},{"dx":0,"dy":7},{"dx":0,"dy":6},{"dx":0,"dy":11},{"dx":0,"dy":7},{"dx":-1,"dy":6},{"dx":0,"dy":8},{"dx":-1,"dy":7},{"dx":0,"dy":6},{"dx":0,"dy":13},{"dx":0,"dy":5},{"dx":1,"dy":6},{"dx":3,"dy":7},{"dx":3,"dy":6},{"dx":4,"dy":4},{"dx":12,"dy":5},{"dx":9,"dy":1},{"dx":12,"dy":0},{"dx":16,"dy":-4},{"dx":10,"dy":-3},{"dx":10,"dy":-3},{"dx":8,"dy":-2},{"dx":7,"dy":-3},{"dx":5,"dy":-3},{"dx":12,"dy":-5},{"dx":5,"dy":-4},{"dx":4,"dy":-5},{"dx":4,"dy":-5},{"dx":3,"dy":-7},{"dx":2,"dy":-6},{"dx":2,"dy":-6},{"dx":2,"dy":-13},{"dx":0,"dy":-5},{"dx":-1,"dy":-6},{"dx":0,"dy":-1},{"dx":-1,"dy":-1},{"dx":0,"dy":-1},{"dx":-1,"dy":0},{"dx":-2,"dy":0},{"dx":-3,"dy":2},{"dx":-4,"dy":13},{"dx":-2,"dy":11},{"dx":-3,"dy":14},{"dx":-10,"dy":24},{"dx":-8,"dy":16},{"dx":-10,"dy":19},{"dx":-16,"dy":24},{"dx":-11,"dy":13},{"dx":-12,"dy":14},{"dx":-16,"dy":17},{"dx":-15,"dy":9},{"dx":-12,"dy":8},{"dx":-14,"dy":10},{"dx":-8,"dy":6},{"dx":-7,"dy":5},{"dx":-7,"dy":4},{"dx":-6,"dy":2},{"dx":-5,"dy":1},{"dx":0,"dy":0},{"dx":-1,"dy":0},{"dx":0,"dy":-5},{"dx":11,"dy":-12},{"dx":14,"dy":-12},{"dx":21,"dy":-17},{"dx":41,"dy":-27},{"dx":30,"dy":-21},{"dx":28,"dy":-21},{"dx":26,"dy":-22},{"dx":13,"dy":-12},{"dx":12,"dy":-10},{"dx":15,"dy":-19},{"dx":8,"dy":-11},{"dx":7,"dy":-10},{"dx":6,"dy":-15},{"dx":4,"dy":-12},{"dx":3,"dy":-11},{"dx":1,"dy":-15},{"dx":-1,"dy":-14},{"dx":-4,"dy":-15},{"dx":-11,"dy":-19},{"dx":-12,"dy":-18},{"dx":-17,"dy":-18},{"dx":-31,"dy":-21},{"dx":-25,"dy":-12},{"dx":-24,"dy":-10},{"dx":-26,"dy":-7},{"dx":-16,"dy":-2},{"dx":-13,"dy":0},{"dx":-16,"dy":2},{"dx":-11,"dy":4},{"dx":-11,"dy":5},{"dx":-19,"dy":9},{"dx":-15,"dy":8},{"dx":-15,"dy":8},{"dx":-20,"dy":12},{"dx":-9,"dy":7},{"dx":-4,"dy":5},{"dx":-9,"dy":15},{"dx":-3,"dy":7},{"dx":-1,"dy":5},{"dx":0,"dy":6},{"dx":4,"dy":5},{"dx":10,"dy":3},{"dx":20,"dy":0},{"dx":18,"dy":-4},{"dx":17,"dy":-5}],"trial_type":"plugin-moving-dots-2","trial_index":14,"plugin_version":"0.0.1","time_elapsed":128711},{"task":"fixation","rt":1906,"stimulus":"<div style=\"font-size:60px;\">+</div>","response":" ","trial_type":"html-keyboard-response","trial_index":15,"plugin_version":"2.1.0","time_elapsed":130618},{"task":"movingdots","control_change":0,"mouse_data":[{"dx":0,"dy":0},{"dx":0,"dy":0},{"dx":0,"dy":0},{"dx":0,"dy":0},{"dx":0,"dy":0},{"dx":0,"dy":0},{"dx":0,"dy":0},{"dx":0,"dy":0},{"dx":0,"dy":0},{"dx":0,"dy":0},{"dx":0,"dy":0},{"dx":0,"dy":0},{"dx":0,"dy":0},{"dx":0,"dy":0},{"dx":0,"dy":0},{"dx":0,"dy":0},{"dx":0,"dy":0},{"dx":0,"dy":0},{"dx":0,"dy":0},{"dx":0,"dy":0},{"dx":0,"dy":0},{"dx":0,"dy":0},{"dx":0,"dy":0},{"dx":0,"dy":0},{"dx":0,"dy":0},{"dx":0,"dy":0},{"dx":0,"dy":0},{"dx":0,"dy":0},{"dx":0,"dy":0},{"dx":0,"dy":0},{"dx":0,"dy":0},{"dx":0,"dy":0},{"dx":0,"dy":0},{"dx":0,"dy":0},{"dx":0,"dy":0},{"dx":0,"dy":0},{"dx":5,"dy":-10},{"dx":5,"dy":-14},{"dx":4,"dy":-11},{"dx":5,"dy":-11},{"dx":4,"dy":-6},{"dx":3,"dy":-4},{"dx":1,"dy":-1},{"dx":0,"dy":0},{"dx":1,"dy":0},{"dx":0,"dy":0},{"dx":0,"dy":0},{"dx":0,"dy":0},{"dx":0,"dy":0},{"dx":0,"dy":0},{"dx":0,"dy":0},{"dx":0,"dy":0},{"dx":0,"dy":0},{"dx":0,"dy":0},{"dx":0,"dy":0},{"dx":0,"dy":0},{"dx":0,"dy":0},{"dx":0,"dy":0},{"dx":0,"dy":0},{"dx":0,"dy":0},{"dx":0,"dy":-5},{"dx":0,"dy":-13},{"dx":-2,"dy":-14},{"dx":-8,"dy":-19},{"dx":-8,"dy":-11},{"dx":-8,"dy":-9},{"dx":-9,"dy":-8},{"dx":-7,"dy":-4},{"dx":-5,"dy":-4},{"dx":-14,"dy":-4},{"dx":-8,"dy":-1},{"dx":-8,"dy":0},{"dx":-18,"dy":1},{"dx":-13,"dy":2},{"dx":-10,"dy":3},{"dx":-15,"dy":5},{"dx":-12,"dy":5},{"dx":-11,"dy":6},{"dx":-12,"dy":10},{"dx":-5,"dy":6},{"dx":-5,"dy":5},{"dx":-5,"dy":8},{"dx":-8,"dy":12},{"dx":-8,"dy":10},{"dx":-16,"dy":17},{"dx":-14,"dy":11},{"dx":-18,"dy":15},{"dx":-18,"dy":15},{"dx":-12,"dy":11},{"dx":-10,"dy":10},{"dx":-12,"dy":15},{"dx":-5,"dy":11},{"dx":-4,"dy":10},{"dx":-3,"dy":12},{"dx":-2,"dy":9},{"dx":-1,"dy":9},{"dx":-2,"dy":16},{"dx":-1,"dy":7},{"dx":-1,"dy":6},{"dx":0,"dy":4},{"dx":-1,"dy":6},{"dx":0,"dy":1},{"dx":1,"dy":6},{"dx":5,"dy":2},{"dx":12,"dy":0},{"dx":43,"dy":-12},{"dx":34,"dy":-15},{"dx":31,"dy":-14},{"dx":34,"dy":-24},{"dx":20,"dy":-14},{"dx":16,"dy":-15},{"dx":13,"dy":-18},{"dx":6,"dy":-13},{"dx":2,"dy":-11},{"dx":0,"dy":-18},{"dx":-4,"dy":-10},{"dx":-8,"dy":-11},{"dx":-13,"dy":-15},{"dx":-16,"dy":-13},{"dx":-14,"dy":-11},{"dx":-27,"dy":-18},{"dx":-20,"dy":-11},{"dx":-16,"dy":-6},{"dx":-30,"dy":-10},{"dx":-18,"dy":-4},{"dx":-15,"dy":-3},{"dx":-22,"dy":-3},{"dx":-11,"dy":-1},{"dx":-5,"dy":-1},{"dx":-8,"dy":-1},{"dx":-4,"dy":0},{"dx":-1,"dy":0},{"dx":0,"dy":-6},{"dx":12,"dy":-8},{"dx":15,"dy":-12},{"dx":39,"dy":-26},{"dx":22,"dy":-12},{"dx":27,"dy":-11},{"dx":38,"dy":-11},{"dx":33,"dy":-7},{"dx":39,"dy":-5},{"dx":51,"dy":-5},{"dx":29,"dy":-3},{"dx":18,"dy":0},{"dx":23,"dy":3},{"dx":17,"dy":3},{"dx":16,"dy":5},{"dx":28,"dy":12},{"dx":13,"dy":8},{"dx":10,"dy":7},{"dx":6,"dy":6},{"dx":2,"dy":5},{"dx":0,"dy":4},{"dx":-11,"dy":13},{"dx":-14,"dy":9},{"dx":-24,"dy":11},{"dx":-37,"dy":19},{"dx":-26,"dy":11},{"dx":-21,"dy":10},{"dx":-32,"dy":15},{"dx":-15,"dy":7},{"dx":-16,"dy":7},{"dx":-25,"dy":14},{"dx":-13,"dy":8},{"dx":-12,"dy":7},{"dx":-10,"dy":8},{"dx":-12,"dy":13},{"dx":-5,"dy":10},{"dx":-6,"dy":12},{"dx":-7,"dy":22},{"dx":-4,"dy":15},{"dx":-3,"dy":18},{"dx":-4,"dy":26},{"dx":0,"dy":17},{"dx":3,"dy":17},{"dx":7,"dy":24},{"dx":8,"dy":16},{"dx":8,"dy":17},{"dx":13,"dy":24},{"dx":12,"dy":15},{"dx":12,"dy":16},{"dx":18,"dy":18},{"dx":14,"dy":13},{"dx":18,"dy":12},{"dx":22,"dy":12},{"dx":22,"dy":7},{"dx":21,"dy":3},{"dx":47,"dy":-1},{"dx":35,"dy":-4},{"dx":33,"dy":-4},{"dx":36,"dy":-6},{"dx":17,"dy":-4},{"dx":11,"dy":-5},{"dx":20,"dy":-8},{"dx":8,"dy":-6},{"dx":5,"dy":-4},{"dx":2,"dy":-5},{"dx":-1,"dy":-6},{"dx":-8,"dy":-9},{"dx":-20,"dy":-13},{"dx":-14,"dy":-8},{"dx":-12,"dy":-8},{"dx":-14,"dy":-13},{"dx":-5,"dy":-8},{"dx":-3,"dy":-10},{"dx":1,"dy":-19},{"dx":9,"dy":-17},{"dx":20,"dy":-26},{"dx":32,"dy":-37},{"dx":22,"dy":-18},{"dx":18,"dy":-15},{"dx":27,"dy":-17},{"dx":20,"dy":-10},{"dx":26,"dy":-10},{"dx":37,"dy":-9},{"dx":18,"dy":-2},{"dx":13,"dy":-3},{"dx":11,"dy":-3},{"dx":3,"dy":-2},{"dx":0,"dy":0},{"dx":10,"dy":-6},{"dx":4,"dy":-3},{"dx":4,"dy":-3},{"dx":3,"dy":-5},{"dx":3,"dy":-5},{"dx":1,"dy":-6},{"dx":-8,"dy":-15},{"dx":-15,"dy":-11},{"dx":-27,"dy":-14},{"dx":-55,"dy":-23},{"dx":-40,"dy":-13},{"dx":-34,"dy":-10},{"dx":-52,"dy":-14},{"dx":-37,"dy":-9},{"dx":-31,"dy":-6},{"dx":-39,"dy":-8},{"dx":-15,"dy":-4},{"dx":-13,"dy":-4},{"dx":-12,"dy":-5},{"dx":-6,"dy":-3},{"dx":-3,"dy":-3},{"dx":0,"dy":-2},{"dx":1,"dy":-5},{"dx":5,"dy":-3},{"dx":7,"dy":-3},{"dx":12,"dy":-4},{"dx":10,"dy":-3},{"dx":21,"dy":-4},{"dx":16,"dy":0},{"dx":20,"dy":0},{"dx":23,"dy":2},{"dx":11,"dy":1},{"dx":7,"dy":1},{"dx":5,"dy":0},{"dx":0,"dy":0},{"dx":0,"dy":0},{"dx":-9,"dy":-5},{"dx":-17,"dy":-4},{"dx":-28,"dy":-6},{"dx":-46,"dy":-4},{"dx":-33,"dy":-3},{"dx":-31,"dy":0},{"dx":-42,"dy":0},{"dx":-28,"dy":2},{"dx":-19,"dy":2},{"dx":-19,"dy":5},{"dx":-6,"dy":1},{"dx":-6,"dy":3},{"dx":-7,"dy":7},{"dx":-1,"dy":1},{"dx":1,"dy":11},{"dx":8,"dy":7},{"dx":11,"dy":9},{"dx":11,"dy":9},{"dx":8,"dy":9},{"dx":2,"dy":7},{"dx":1,"dy":7},{"dx":1,"dy":8},{"dx":0,"dy":7},{"dx":3,"dy":5},{"dx":15,"dy":9},{"dx":15,"dy":5},{"dx":22,"dy":2},{"dx":39,"dy":1},{"dx":20,"dy":-2},{"dx":12,"dy":-2},{"dx":5,"dy":-1},{"dx":0,"dy":0},{"dx":1,"dy":0},{"dx":0,"dy":0},{"dx":-15,"dy":5},{"dx":-14,"dy":6},{"dx":-16,"dy":7},{"dx":-5,"dy":3},{"dx":-5,"dy":4},{"dx":-6,"dy":12},{"dx":-2,"dy":8},{"dx":0,"dy":12},{"dx":0,"dy":19},{"dx":2,"dy":14},{"dx":3,"dy":14},{"dx":10,"dy":22},{"dx":10,"dy":16},{"dx":12,"dy":13},{"dx":23,"dy":24},{"dx":14,"dy":12},{"dx":11,"dy":11},{"dx":15,"dy":15},{"dx":7,"dy":9},{"dx":4,"dy":10},{"dx":2,"dy":8},{"dx":0,"dy":10},{"dx":-6,"dy":15},{"dx":-15,"dy":19},{"dx":-15,"dy":15},{"dx":-20,"dy":18},{"dx":-35,"dy":28},{"dx":-23,"dy":17},{"dx":-21,"dy":13},{"dx":-25,"dy":15},{"dx":-18,"dy":8},{"dx":-15,"dy":4},{"dx":-12,"dy":1},{"dx":-18,"dy":-3},{"dx":-12,"dy":-6},{"dx":-18,"dy":-13},{"dx":-13,"dy":-13},{"dx":-14,"dy":-13},{"dx":-16,"dy":-22},{"dx":-10,"dy":-16},{"dx":-5,"dy":-14},{"dx":-2,"dy":-22},{"dx":2,"dy":-15},{"dx":7,"dy":-14},{"dx":10,"dy":-13},{"dx":30,"dy":-24},{"dx":27,"dy":-17},{"dx":54,"dy":-23},{"dx":40,"dy":-15},{"dx":38,"dy":-12},{"dx":42,"dy":-11},{"dx":17,"dy":-3},{"dx":11,"dy":-1},{"dx":6,"dy":0},{"dx":12,"dy":1},{"dx":4,"dy":1},{"dx":1,"dy":0},{"dx":0,"dy":0},{"dx":0,"dy":0},{"dx":-5,"dy":1},{"dx":-19,"dy":1},{"dx":-18,"dy":2},{"dx":-24,"dy":1},{"dx":-41,"dy":1},{"dx":-29,"dy":0},{"dx":-23,"dy":-1},{"dx":-34,"dy":-5},{"dx":-24,"dy":-6},{"dx":-23,"dy":-6},{"dx":-28,"dy":-11},{"dx":-15,"dy":-7},{"dx":-12,"dy":-8},{"dx":-18,"dy":-11},{"dx":-11,"dy":-9},{"dx":-11,"dy":-7},{"dx":-14,"dy":-12},{"dx":-7,"dy":-8},{"dx":-8,"dy":-6},{"dx":-10,"dy":-12},{"dx":-3,"dy":-5},{"dx":-5,"dy":-7},{"dx":-8,"dy":-13},{"dx":-3,"dy":-4},{"dx":-5,"dy":-6},{"dx":-6,"dy":-8},{"dx":-3,"dy":-6},{"dx":-3,"dy":-5},{"dx":-3,"dy":-14},{"dx":0,"dy":-7},{"dx":3,"dy":-9},{"dx":3,"dy":-7},{"dx":3,"dy":-6},{"dx":0,"dy":0},{"dx":0,"dy":-1},{"dx":0,"dy":0},{"dx":0,"dy":0},{"dx":-15,"dy":8},{"dx":-18,"dy":11},{"dx":-22,"dy":13},{"dx":-28,"dy":22},{"dx":-11,"dy":12},{"dx":-6,"dy":11},{"dx":-7,"dy":19},{"dx":-2,"dy":6},{"dx":-2,"dy":10},{"dx":-1,"dy":6},{"dx":0,"dy":1},{"dx":0,"dy":1},{"dx":0,"dy":0},{"dx":2,"dy":-3},{"dx":7,"dy":-11},{"dx":21,"dy":-26},{"dx":22,"dy":-22},{"dx":19,"dy":-15},{"dx":21,"dy":-21},{"dx":19,"dy":-15},{"dx":23,"dy":-16},{"dx":26,"dy":-19},{"dx":16,"dy":-12},{"dx":13,"dy":-8},{"dx":14,"dy":-13},{"dx":8,"dy":-5},{"dx":10,"dy":-5},{"dx":15,"dy":-2},{"dx":7,"dy":0},{"dx":10,"dy":1},{"dx":19,"dy":7},{"dx":15,"dy":8},{"dx":17,"dy":9},{"dx":20,"dy":8},{"dx":14,"dy":7},{"dx":13,"dy":7},{"dx":16,"dy":12},{"dx":7,"dy":9},{"dx":3,"dy":11},{"dx":-1,"dy":19},{"dx":-6,"dy":12},{"dx":-15,"dy":15},{"dx":-31,"dy":24},{"dx":-18,"dy":13},{"dx":-20,"dy":13},{"dx":-18,"dy":15},{"dx":-11,"dy":10},{"dx":-7,"dy":9},{"dx":-9,"dy":17},{"dx":-3,"dy":10},{"dx":-2,"dy":12},{"dx":1,"dy":16},{"dx":3,"dy":13},{"dx":7,"dy":13},{"dx":14,"dy":20},{"dx":14,"dy":15},{"dx":19,"dy":16},{"dx":38,"dy":22},{"dx":32,"dy":14},{"dx":35,"dy":10},{"dx":56,"dy":15},{"dx":37,"dy":8},{"dx":32,"dy":7},{"dx":52,"dy":8},{"dx":32,"dy":6},{"dx":32,"dy":4},{"dx":31,"dy":4}],"trial_type":"plugin-moving-dots-2","trial_index":16,"plugin_version":"0.0.1","time_elapsed":138131},{"task":"fixation","rt":2135,"stimulus":"<div style=\"font-size:60px;\">+</div>","response":" ","trial_type":"html-keyboard-response","trial_index":17,"plugin_version":"2.1.0","time_elapsed":140266},{"task":"movingdots","control_change":0,"mouse_data":[{"dx":0,"dy":0},{"dx":0,"dy":0},{"dx":0,"dy":0},{"dx":0,"dy":0},{"dx":0,"dy":0},{"dx":0,"dy":0},{"dx":0,"dy":0},{"dx":0,"dy":0},{"dx":0,"dy":0},{"dx":0,"dy":0},{"dx":0,"dy":0},{"dx":0,"dy":0},{"dx":0,"dy":0},{"dx":0,"dy":0},{"dx":0,"dy":0},{"dx":0,"dy":0},{"dx":0,"dy":0},{"dx":0,"dy":0},{"dx":0,"dy":0},{"dx":0,"dy":0},{"dx":0,"dy":0},{"dx":0,"dy":0},{"dx":0,"dy":0},{"dx":0,"dy":0},{"dx":0,"dy":0},{"dx":0,"dy":0},{"dx":0,"dy":0},{"dx":0,"dy":0},{"dx":0,"dy":0},{"dx":0,"dy":0},{"dx":0,"dy":0},{"dx":0,"dy":0},{"dx":0,"dy":0},{"dx":0,"dy":0},{"dx":0,"dy":0},{"dx":0,"dy":0},{"dx":0,"dy":0},{"dx":0,"dy":0},{"dx":0,"dy":0},{"dx":0,"dy":0},{"dx":0,"dy":0},{"dx":0,"dy":0},{"dx":0,"dy":0},{"dx":0,"dy":0},{"dx":0,"dy":0},{"dx":0,"dy":0},{"dx":0,"dy":0},{"dx":0,"dy":0},{"dx":0,"dy":0},{"dx":0,"dy":0},{"dx":0,"dy":0},{"dx":0,"dy":0},{"dx":0,"dy":0},{"dx":0,"dy":0},{"dx":0,"dy":0},{"dx":0,"dy":0},{"dx":0,"dy":0},{"dx":0,"dy":0},{"dx":0,"dy":0},{"dx":0,"dy":0},{"dx":0,"dy":0},{"dx":0,"dy":0},{"dx":0,"dy":0},{"dx":0,"dy":0},{"dx":0,"dy":0},{"dx":0,"dy":0},{"dx":0,"dy":0},{"dx":0,"dy":0},{"dx":0,"dy":0},{"dx":0,"dy":0},{"dx":0,"dy":0},{"dx":0,"dy":0},{"dx":0,"dy":0},{"dx":0,"dy":0},{"dx":0,"dy":0},{"dx":0,"dy":0},{"dx":0,"dy":0},{"dx":-4,"dy":4},{"dx":-14,"dy":21},{"dx":-11,"dy":16},{"dx":-11,"dy":15},{"dx":-12,"dy":21},{"dx":-6,"dy":12},{"dx":-5,"dy":13},{"dx":-2,"dy":8},{"dx":0,"dy":7},{"dx":3,"dy":5},{"dx":10,"dy":5},{"dx":30,"dy":-1},{"dx":28,"dy":-4},{"dx":32,"dy":-8},{"dx":34,"dy":-8},{"dx":18,"dy":-5},{"dx":15,"dy":-5},{"dx":23,"dy":-11},{"dx":17,"dy":-9},{"dx":13,"dy":-8},{"dx":16,"dy":-13},{"dx":8,"dy":-7},{"dx":4,"dy":-5},{"dx":5,"dy":-6},{"dx":2,"dy":-6},{"dx":2,"dy":-8},{"dx":-2,"dy":-19},{"dx":-4,"dy":-8},{"dx":-5,"dy":-8},{"dx":-13,"dy":-13},{"dx":-10,"dy":-5},{"dx":-14,"dy":-6},{"dx":-24,"dy":-4},{"dx":-19,"dy":-1},{"dx":-21,"dy":4},{"dx":-34,"dy":13},{"dx":-25,"dy":14},{"dx":-22,"dy":16},{"dx":-36,"dy":23},{"dx":-23,"dy":17},{"dx":-23,"dy":14},{"dx":-33,"dy":19},{"dx":-21,"dy":9},{"dx":-19,"dy":7},{"dx":-21,"dy":6},{"dx":-15,"dy":3},{"dx":-13,"dy":0},{"dx":-16,"dy":0},{"dx":-10,"dy":-2},{"dx":-9,"dy":-3},{"dx":-7,"dy":-4},{"dx":-5,"dy":-6},{"dx":-4,"dy":-6},{"dx":-3,"dy":-19},{"dx":1,"dy":-12},{"dx":4,"dy":-14},{"dx":11,"dy":-19},{"dx":13,"dy":-20},{"dx":16,"dy":-19},{"dx":15,"dy":-17},{"dx":10,"dy":-9},{"dx":8,"dy":-7},{"dx":6,"dy":-6},{"dx":5,"dy":-4},{"dx":5,"dy":-4},{"dx":15,"dy":-7},{"dx":13,"dy":-6},{"dx":13,"dy":-6},{"dx":19,"dy":-8},{"dx":6,"dy":-2},{"dx":5,"dy":-2},{"dx":2,"dy":-1},{"dx":0,"dy":-1},{"dx":1,"dy":0},{"dx":-1,"dy":-5},{"dx":-5,"dy":-4},{"dx":-9,"dy":-5},{"dx":-13,"dy":-5},{"dx":-12,"dy":-4},{"dx":-14,"dy":-3},{"dx":-22,"dy":-4},{"dx":-17,"dy":-3},{"dx":-15,"dy":-2},{"dx":-18,"dy":-3},{"dx":-10,"dy":-1},{"dx":-6,"dy":-1},{"dx":-14,"dy":-2},{"dx":-8,"dy":0},{"dx":-10,"dy":3},{"dx":-16,"dy":6},{"dx":-9,"dy":4},{"dx":-9,"dy":5},{"dx":-6,"dy":4},{"dx":-5,"dy":6},{"dx":-3,"dy":4},{"dx":-1,"dy":6},{"dx":0,"dy":4},{"dx":0,"dy":1},{"dx":0,"dy":1},{"dx":-5,"dy":2},{"dx":-7,"dy":-1},{"dx":-14,"dy":-5},{"dx":-7,"dy":-4},{"dx":-3,"dy":-3},{"dx":-4,"dy":-6},{"dx":-1,"dy":-1},{"dx":-2,"dy":-7},{"dx":2,"dy":-24},{"dx":8,"dy":-15},{"dx":21,"dy":-18},{"dx":36,"dy":-18},{"dx":14,"dy":-5},{"dx":9,"dy":-4},{"dx":5,"dy":-1},{"dx":16,"dy":-4},{"dx":5,"dy":-2},{"dx":17,"dy":-6},{"dx":10,"dy":-4},{"dx":13,"dy":-3},{"dx":18,"dy":-3},{"dx":14,"dy":-1},{"dx":17,"dy":0},{"dx":30,"dy":4},{"dx":20,"dy":4},{"dx":15,"dy":6},{"dx":20,"dy":10},{"dx":14,"dy":8},{"dx":12,"dy":10},{"dx":20,"dy":21},{"dx":11,"dy":15},{"dx":6,"dy":13},{"dx":2,"dy":18},{"dx":-1,"dy":11},{"dx":-6,"dy":11},{"dx":-13,"dy":19},{"dx":-8,"dy":14},{"dx":-8,"dy":11},{"dx":-4,"dy":17},{"dx":-1,"dy":11},{"dx":1,"dy":11},{"dx":5,"dy":11},{"dx":14,"dy":17},{"dx":16,"dy":15},{"dx":27,"dy":16},{"dx":28,"dy":9},{"dx":19,"dy":4},{"dx":30,"dy":0},{"dx":24,"dy":-5},{"dx":28,"dy":-9},{"dx":38,"dy":-15},{"dx":23,"dy":-10},{"dx":12,"dy":-9},{"dx":9,"dy":-8},{"dx":4,"dy":-4},{"dx":1,"dy":-4},{"dx":0,"dy":-11},{"dx":-4,"dy":-5},{"dx":-3,"dy":-7},{"dx":-5,"dy":-7},{"dx":-4,"dy":-8},{"dx":-9,"dy":-12},{"dx":-13,"dy":-15},{"dx":-10,"dy":-10},{"dx":-16,"dy":-12},{"dx":-31,"dy":-17},{"dx":-24,"dy":-11},{"dx":-24,"dy":-7},{"dx":-25,"dy":-9},{"dx":-12,"dy":-2},{"dx":-5,"dy":-1},{"dx":-7,"dy":0},{"dx":-5,"dy":4},{"dx":0,"dy":5},{"dx":5,"dy":22},{"dx":11,"dy":19},{"dx":13,"dy":22},{"dx":8,"dy":15},{"dx":6,"dy":22},{"dx":0,"dy":16},{"dx":-1,"dy":16},{"dx":-8,"dy":27},{"dx":-16,"dy":25},{"dx":-19,"dy":22},{"dx":-33,"dy":35},{"dx":-22,"dy":19},{"dx":-19,"dy":19},{"dx":-32,"dy":23},{"dx":-9,"dy":9},{"dx":-5,"dy":5},{"dx":-1,"dy":0},{"dx":-1,"dy":1},{"dx":0,"dy":1},{"dx":23,"dy":-1},{"dx":32,"dy":-8},{"dx":39,"dy":-12},{"dx":62,"dy":-24},{"dx":37,"dy":-18},{"dx":36,"dy":-17},{"dx":46,"dy":-25},{"dx":28,"dy":-15},{"dx":23,"dy":-15},{"dx":19,"dy":-14},{"dx":7,"dy":-7},{"dx":5,"dy":-7},{"dx":4,"dy":-16},{"dx":-1,"dy":-15},{"dx":-6,"dy":-15},{"dx":-17,"dy":-34},{"dx":-14,"dy":-24},{"dx":-15,"dy":-20},{"dx":-33,"dy":-35},{"dx":-24,"dy":-21},{"dx":-26,"dy":-19},{"dx":-44,"dy":-31},{"dx":-32,"dy":-19},{"dx":-34,"dy":-18},{"dx":-65,"dy":-30},{"dx":-44,"dy":-17},{"dx":-43,"dy":-12},{"dx":-49,"dy":-10},{"dx":-27,"dy":-5},{"dx":-17,"dy":-1},{"dx":-21,"dy":0},{"dx":-13,"dy":1},{"dx":-5,"dy":2},{"dx":-9,"dy":0},{"dx":0,"dy":0},{"dx":0,"dy":0},{"dx":0,"dy":0},{"dx":0,"dy":0},{"dx":0,"dy":0},{"dx":0,"dy":0},{"dx":0,"dy":0},{"dx":0,"dy":0},{"dx":0,"dy":0},{"dx":0,"dy":0},{"dx":0,"dy":0},{"dx":0,"dy":0},{"dx":0,"dy":0},{"dx":0,"dy":0},{"dx":-26,"dy":2},{"dx":-22,"dy":4},{"dx":-15,"dy":4},{"dx":-12,"dy":6},{"dx":-17,"dy":14},{"dx":-10,"dy":10},{"dx":-6,"dy":13},{"dx":-9,"dy":27},{"dx":-5,"dy":18},{"dx":-4,"dy":20},{"dx":-4,"dy":21},{"dx":-2,"dy":6},{"dx":-2,"dy":10},{"dx":-5,"dy":16},{"dx":-2,"dy":8},{"dx":-2,"dy":9},{"dx":-1,"dy":6},{"dx":0,"dy":6},{"dx":4,"dy":11},{"dx":3,"dy":6},{"dx":5,"dy":8},{"dx":5,"dy":8},{"dx":6,"dy":6},{"dx":10,"dy":12},{"dx":11,"dy":11},{"dx":29,"dy":17},{"dx":31,"dy":15},{"dx":38,"dy":11},{"dx":65,"dy":17},{"dx":42,"dy":4},{"dx":44,"dy":0},{"dx":63,"dy":-11},{"dx":38,"dy":-12},{"dx":34,"dy":-12},{"dx":36,"dy":-16},{"dx":18,"dy":-6},{"dx":12,"dy":-3},{"dx":11,"dy":-3},{"dx":4,"dy":-1},{"dx":1,"dy":0},{"dx":5,"dy":-3},{"dx":3,"dy":-5},{"dx":-1,"dy":-10},{"dx":-11,"dy":-16},{"dx":-11,"dy":-12},{"dx":-14,"dy":-11},{"dx":-38,"dy":-19},{"dx":-27,"dy":-8},{"dx":-27,"dy":-8},{"dx":-23,"dy":-7},{"dx":-11,"dy":-3},{"dx":-6,"dy":-3},{"dx":-2,"dy":-1},{"dx":-1,"dy":0},{"dx":0,"dy":0},{"dx":21,"dy":-1},{"dx":26,"dy":6},{"dx":26,"dy":8},{"dx":38,"dy":15},{"dx":24,"dy":11},{"dx":17,"dy":11},{"dx":26,"dy":19},{"dx":13,"dy":12},{"dx":8,"dy":11},{"dx":10,"dy":17},{"dx":3,"dy":14},{"dx":1,"dy":12},{"dx":-6,"dy":19},{"dx":-9,"dy":14},{"dx":-19,"dy":17},{"dx":-36,"dy":23},{"dx":-27,"dy":16},{"dx":-29,"dy":17},{"dx":-41,"dy":25},{"dx":-26,"dy":14},{"dx":-19,"dy":12},{"dx":-26,"dy":19},{"dx":-12,"dy":8},{"dx":-4,"dy":5},{"dx":-5,"dy":5},{"dx":-3,"dy":4},{"dx":0,"dy":1},{"dx":1,"dy":5},{"dx":5,"dy":2},{"dx":16,"dy":6},{"dx":21,"dy":4},{"dx":11,"dy":3},{"dx":11,"dy":4},{"dx":17,"dy":6},{"dx":11,"dy":2},{"dx":14,"dy":1},{"dx":27,"dy":1},{"dx":18,"dy":-4},{"dx":24,"dy":-10},{"dx":39,"dy":-25},{"dx":28,"dy":-21},{"dx":24,"dy":-19},{"dx":21,"dy":-18},{"dx":11,"dy":-9},{"dx":8,"dy":-5},{"dx":5,"dy":-4},{"dx":4,"dy":-3},{"dx":0,"dy":0},{"dx":-4,"dy":-3},{"dx":-19,"dy":-5},{"dx":-25,"dy":-4},{"dx":-37,"dy":-4},{"dx":-74,"dy":-3},{"dx":-50,"dy":0},{"dx":-42,"dy":2},{"dx":-41,"dy":3},{"dx":-29,"dy":3},{"dx":-24,"dy":3},{"dx":-28,"dy":1},{"dx":-12,"dy":-1},{"dx":-6,"dy":-2},{"dx":-12,"dy":-12},{"dx":-2,"dy":-13},{"dx":2,"dy":-18},{"dx":21,"dy":-56},{"dx":22,"dy":-44},{"dx":28,"dy":-45},{"dx":34,"dy":-56},{"dx":17,"dy":-32},{"dx":12,"dy":-26},{"dx":17,"dy":-43},{"dx":7,"dy":-18},{"dx":6,"dy":-20},{"dx":4,"dy":-21},{"dx":1,"dy":-11},{"dx":-1,"dy":-10},{"dx":-4,"dy":-11},{"dx":-2,"dy":-7},{"dx":-2,"dy":-5},{"dx":-1,"dy":-2},{"dx":-1,"dy":-1}],"trial_type":"plugin-moving-dots-2","trial_index":18,"plugin_version":"0.0.1","time_elapsed":147779},{"task":"fixation","rt":2071,"stimulus":"<div style=\"font-size:60px;\">+</div>","response":" ","trial_type":"html-keyboard-response","trial_index":19,"plugin_version":"2.1.0","time_elapsed":149851},{"task":"movingdots","control_change":0,"mouse_data":[{"dx":0,"dy":0},{"dx":0,"dy":0},{"dx":0,"dy":0},{"dx":0,"dy":0},{"dx":0,"dy":0},{"dx":0,"dy":0},{"dx":0,"dy":0},{"dx":0,"dy":0},{"dx":0,"dy":0},{"dx":0,"dy":0},{"dx":0,"dy":0},{"dx":0,"dy":0},{"dx":0,"dy":0},{"dx":0,"dy":0},{"dx":0,"dy":0},{"dx":0,"dy":0},{"dx":0,"dy":0},{"dx":0,"dy":0},{"dx":0,"dy":0},{"dx":0,"dy":0},{"dx":0,"dy":0},{"dx":0,"dy":0},{"dx":0,"dy":0},{"dx":0,"dy":0},{"dx":0,"dy":0},{"dx":0,"dy":0},{"dx":0,"dy":0},{"dx":0,"dy":0},{"dx":0,"dy":0},{"dx":0,"dy":0},{"dx":1,"dy":-7},{"dx":3,"dy":-18},{"dx":4,"dy":-13},{"dx":2,"dy":-7},{"dx":0,"dy":0},{"dx":0,"dy":0},{"dx":0,"dy":0},{"dx":0,"dy":0},{"dx":0,"dy":0},{"dx":0,"dy":0},{"dx":0,"dy":0},{"dx":0,"dy":0},{"dx":0,"dy":0},{"dx":0,"dy":0},{"dx":0,"dy":0},{"dx":0,"dy":0},{"dx":0,"dy":0},{"dx":0,"dy":0},{"dx":0,"dy":0},{"dx":0,"dy":0},{"dx":0,"dy":0},{"dx":0,"dy":0},{"dx":0,"dy":0},{"dx":0,"dy":0},{"dx":0,"dy":0},{"dx":0,"dy":0},{"dx":0,"dy":0},{"dx":0,"dy":0},{"dx":0,"dy":0},{"dx":0,"dy":0},{"dx":0,"dy":0},{"dx":0,"dy":0},{"dx":0,"dy":0},{"dx":0,"dy":0},{"dx":0,"dy":0},{"dx":0,"dy":0},{"dx":0,"dy":0},{"dx":0,"dy":0},{"dx":0,"dy":0},{"dx":0,"dy":0},{"dx":0,"dy":0},{"dx":0,"dy":0},{"dx":0,"dy":0},{"dx":0,"dy":0},{"dx":0,"dy":0},{"dx":0,"dy":0},{"dx":0,"dy":0},{"dx":0,"dy":0},{"dx":0,"dy":0},{"dx":0,"dy":0},{"dx":0,"dy":0},{"dx":0,"dy":0},{"dx":0,"dy":0},{"dx":0,"dy":0},{"dx":0,"dy":0},{"dx":0,"dy":0},{"dx":0,"dy":0},{"dx":0,"dy":0},{"dx":12,"dy":-16},{"dx":23,"dy":-37},{"dx":12,"dy":-26},{"dx":4,"dy":-27},{"dx":-7,"dy":-12},{"dx":-11,"dy":-10},{"dx":-26,"dy":-10},{"dx":-22,"dy":-4},{"dx":-23,"dy":-1},{"dx":-33,"dy":2},{"dx":-22,"dy":7},{"dx":-20,"dy":9},{"dx":-26,"dy":23},{"dx":-12,"dy":14},{"dx":-11,"dy":16},{"dx":-8,"dy":22},{"dx":-3,"dy":11},{"dx":-1,"dy":6},{"dx":1,"dy":17},{"dx":3,"dy":9},{"dx":5,"dy":9},{"dx":12,"dy":13},{"dx":8,"dy":8},{"dx":8,"dy":7},{"dx":11,"dy":10},{"dx":9,"dy":5},{"dx":12,"dy":4},{"dx":28,"dy":2},{"dx":40,"dy":-4},{"dx":53,"dy":-12},{"dx":72,"dy":-22},{"dx":35,"dy":-14},{"dx":27,"dy":-13},{"dx":20,"dy":-14},{"dx":4,"dy":-5},{"dx":5,"dy":-12},{"dx":-1,"dy":-6},{"dx":-5,"dy":-11},{"dx":-11,"dy":-12},{"dx":-31,"dy":-22},{"dx":-26,"dy":-13},{"dx":-30,"dy":-12},{"dx":-46,"dy":-13},{"dx":-28,"dy":-5},{"dx":-33,"dy":-1},{"dx":-50,"dy":7},{"dx":-36,"dy":9},{"dx":-38,"dy":13},{"dx":-48,"dy":21},{"dx":-24,"dy":14},{"dx":-15,"dy":9},{"dx":-16,"dy":16},{"dx":-12,"dy":12},{"dx":-12,"dy":15},{"dx":-18,"dy":24},{"dx":-8,"dy":14},{"dx":-6,"dy":13},{"dx":-7,"dy":16},{"dx":-2,"dy":5},{"dx":-2,"dy":15},{"dx":1,"dy":17},{"dx":3,"dy":13},{"dx":4,"dy":14},{"dx":8,"dy":19},{"dx":5,"dy":13},{"dx":8,"dy":12},{"dx":16,"dy":18},{"dx":14,"dy":10},{"dx":14,"dy":10},{"dx":32,"dy":14},{"dx":21,"dy":6},{"dx":26,"dy":3},{"dx":42,"dy":1},{"dx":28,"dy":-1},{"dx":27,"dy":-4},{"dx":36,"dy":-7},{"dx":21,"dy":-6},{"dx":23,"dy":-5},{"dx":23,"dy":-8},{"dx":15,"dy":-3},{"dx":14,"dy":-3},{"dx":18,"dy":-6},{"dx":11,"dy":-5},{"dx":5,"dy":-2},{"dx":11,"dy":-6},{"dx":3,"dy":-4},{"dx":3,"dy":-5},{"dx":2,"dy":-8},{"dx":0,"dy":-5},{"dx":-2,"dy":-9},{"dx":-16,"dy":-20},{"dx":-20,"dy":-18},{"dx":-28,"dy":-23},{"dx":-53,"dy":-43},{"dx":-39,"dy":-32},{"dx":-33,"dy":-27},{"dx":-39,"dy":-41},{"dx":-17,"dy":-23},{"dx":-10,"dy":-20},{"dx":-6,"dy":-25},{"dx":0,"dy":-15},{"dx":4,"dy":-15},{"dx":14,"dy":-21},{"dx":12,"dy":-10},{"dx":15,"dy":-10},{"dx":23,"dy":-10},{"dx":14,"dy":-3},{"dx":16,"dy":-1},{"dx":25,"dy":1},{"dx":13,"dy":3},{"dx":13,"dy":7},{"dx":18,"dy":11},{"dx":11,"dy":9},{"dx":8,"dy":10},{"dx":14,"dy":18},{"dx":9,"dy":16},{"dx":9,"dy":16},{"dx":7,"dy":23},{"dx":2,"dy":15},{"dx":0,"dy":16},{"dx":-4,"dy":27},{"dx":-4,"dy":18},{"dx":-3,"dy":17},{"dx":-3,"dy":24},{"dx":-1,"dy":15},{"dx":0,"dy":16},{"dx":5,"dy":23},{"dx":6,"dy":13},{"dx":6,"dy":14},{"dx":14,"dy":17},{"dx":12,"dy":11},{"dx":12,"dy":9},{"dx":21,"dy":10},{"dx":13,"dy":5},{"dx":13,"dy":5},{"dx":23,"dy":4},{"dx":15,"dy":2},{"dx":11,"dy":0},{"dx":7,"dy":1},{"dx":4,"dy":0},{"dx":5,"dy":-1},{"dx":9,"dy":-6},{"dx":6,"dy":-10},{"dx":7,"dy":-11},{"dx":10,"dy":-18},{"dx":8,"dy":-11},{"dx":3,"dy":-6},{"dx":3,"dy":-5},{"dx":0,"dy":-2},{"dx":1,"dy":-1},{"dx":0,"dy":0},{"dx":0,"dy":0},{"dx":-4,"dy":1},{"dx":-1,"dy":0},{"dx":-4,"dy":3},{"dx":-1,"dy":0},{"dx":0,"dy":0},{"dx":0,"dy":0},{"dx":6,"dy":-2},{"dx":10,"dy":-7},{"dx":11,"dy":-14},{"dx":6,"dy":-11},{"dx":5,"dy":-12},{"dx":3,"dy":-21},{"dx":1,"dy":-15},{"dx":-3,"dy":-16},{"dx":-13,"dy":-23},{"dx":-11,"dy":-13},{"dx":-12,"dy":-11},{"dx":-11,"dy":-12},{"dx":-6,"dy":-6},{"dx":-4,"dy":-5},{"dx":-4,"dy":-3},{"dx":-6,"dy":-2},{"dx":-14,"dy":-1},{"dx":-21,"dy":3},{"dx":-14,"dy":5},{"dx":-14,"dy":8},{"dx":-13,"dy":14},{"dx":-6,"dy":8},{"dx":-4,"dy":12},{"dx":-4,"dy":17},{"dx":0,"dy":14},{"dx":3,"dy":13},{"dx":8,"dy":22},{"dx":6,"dy":12},{"dx":6,"dy":11},{"dx":9,"dy":10},{"dx":4,"dy":5},{"dx":0,"dy":1},{"dx":4,"dy":5},{"dx":1,"dy":1},{"dx":1,"dy":5},{"dx":-8,"dy":8},{"dx":-10,"dy":7},{"dx":-16,"dy":12},{"dx":-10,"dy":8},{"dx":-7,"dy":10},{"dx":-4,"dy":7},{"dx":-3,"dy":8},{"dx":0,"dy":5},{"dx":0,"dy":5},{"dx":17,"dy":9},{"dx":16,"dy":2},{"dx":23,"dy":-3},{"dx":37,"dy":-13},{"dx":23,"dy":-11},{"dx":16,"dy":-11},{"dx":18,"dy":-16},{"dx":10,"dy":-13},{"dx":12,"dy":-14},{"dx":15,"dy":-28},{"dx":7,"dy":-16},{"dx":6,"dy":-15},{"dx":4,"dy":-25},{"dx":2,"dy":-16},{"dx":0,"dy":-16},{"dx":-1,"dy":-25},{"dx":-2,"dy":-18},{"dx":-5,"dy":-18},{"dx":-9,"dy":-22},{"dx":-6,"dy":-13},{"dx":-9,"dy":-13},{"dx":-15,"dy":-13},{"dx":-9,"dy":-5},{"dx":-8,"dy":-1},{"dx":-17,"dy":3},{"dx":-12,"dy":4},{"dx":-11,"dy":5},{"dx":-21,"dy":8},{"dx":-15,"dy":5},{"dx":-14,"dy":7},{"dx":-12,"dy":6},{"dx":-15,"dy":12},{"dx":-11,"dy":9},{"dx":-8,"dy":7},{"dx":-13,"dy":13},{"dx":-8,"dy":9},{"dx":-8,"dy":10},{"dx":-10,"dy":13},{"dx":-3,"dy":5},{"dx":-4,"dy":7},{"dx":-4,"dy":12},{"dx":0,"dy":6},{"dx":0,"dy":5},{"dx":1,"dy":6},{"dx":0,"dy":1},{"dx":0,"dy":0},{"dx":0,"dy":1},{"dx":0,"dy":0},{"dx":3,"dy":-5},{"dx":1,"dy":-4},{"dx":1,"dy":-1},{"dx":0,"dy":-1},{"dx":-8,"dy":3},{"dx":-11,"dy":7},{"dx":-13,"dy":10},{"dx":-30,"dy":19},{"dx":-27,"dy":17},{"dx":-29,"dy":16},{"dx":-44,"dy":19},{"dx":-22,"dy":10},{"dx":-17,"dy":6},{"dx":-17,"dy":3},{"dx":-7,"dy":0},{"dx":-6,"dy":0},{"dx":-5,"dy":-3},{"dx":-5,"dy":-4},{"dx":-3,"dy":-5},{"dx":-6,"dy":-20},{"dx":-2,"dy":-6},{"dx":-2,"dy":-10},{"dx":-8,"dy":-17},{"dx":-6,"dy":-8},{"dx":-8,"dy":-8},{"dx":-14,"dy":-10},{"dx":-13,"dy":-5},{"dx":-16,"dy":-4},{"dx":-27,"dy":-3},{"dx":-18,"dy":-2},{"dx":-17,"dy":-2},{"dx":-18,"dy":-3},{"dx":-11,"dy":-4},{"dx":-9,"dy":-6},{"dx":-12,"dy":-13},{"dx":-5,"dy":-10},{"dx":-4,"dy":-10},{"dx":-2,"dy":-12},{"dx":0,"dy":-8},{"dx":1,"dy":-6},{"dx":16,"dy":-14},{"dx":19,"dy":-8},{"dx":17,"dy":-3},{"dx":26,"dy":-1},{"dx":12,"dy":5},{"dx":8,"dy":8},{"dx":2,"dy":18},{"dx":-1,"dy":18},{"dx":-4,"dy":17},{"dx":-13,"dy":40},{"dx":-10,"dy":29},{"dx":-11,"dy":28},{"dx":-6,"dy":44},{"dx":0,"dy":25},{"dx":7,"dy":26},{"dx":21,"dy":48},{"dx":17,"dy":28},{"dx":16,"dy":28},{"dx":23,"dy":31},{"dx":13,"dy":17},{"dx":11,"dy":13},{"dx":14,"dy":17},{"dx":6,"dy":7},{"dx":7,"dy":9},{"dx":5,"dy":7},{"dx":4,"dy":6},{"dx":4,"dy":4},{"dx":8,"dy":5},{"dx":5,"dy":0},{"dx":7,"dy":-1},{"dx":16,"dy":-13},{"dx":11,"dy":-12},{"dx":13,"dy":-13},{"dx":14,"dy":-22},{"dx":7,"dy":-12},{"dx":6,"dy":-13},{"dx":3,"dy":-17},{"dx":1,"dy":-7},{"dx":-1,"dy":-14},{"dx":-3,"dy":-11},{"dx":-4,"dy":-15},{"dx":-2,"dy":-12},{"dx":-1,"dy":-20},{"dx":3,"dy":-18},{"dx":8,"dy":-25},{"dx":19,"dy":-40},{"dx":17,"dy":-27},{"dx":13,"dy":-22},{"dx":15,"dy":-31},{"dx":9,"dy":-20},{"dx":7,"dy":-15},{"dx":6,"dy":-14},{"dx":6,"dy":-17},{"dx":2,"dy":-12},{"dx":2,"dy":-10},{"dx":0,"dy":-10},{"dx":0,"dy":-8},{"dx":0,"dy":-9},{"dx":1,"dy":-20},{"dx":1,"dy":-8},{"dx":0,"dy":-7},{"dx":0,"dy":-6},{"dx":0,"dy":-1},{"dx":0,"dy":-1},{"dx":-2,"dy":-1},{"dx":-5,"dy":1},{"dx":-5,"dy":5},{"dx":-10,"dy":16},{"dx":-7,"dy":11},{"dx":-6,"dy":14},{"dx":-7,"dy":21},{"dx":-5,"dy":15},{"dx":-4,"dy":13},{"dx":-3,"dy":12},{"dx":-3,"dy":7}],"trial_type":"plugin-moving-dots-2","trial_index":20,"plugin_version":"0.0.1","time_elapsed":157362},{"task":"fixation","rt":2359,"stimulus":"<div style=\"font-size:60px;\">+</div>","response":" ","trial_type":"html-keyboard-response","trial_index":21,"plugin_version":"2.1.0","time_elapsed":159723},{"task":"movingdots","control_change":0,"mouse_data":[{"dx":0,"dy":0},{"dx":0,"dy":0},{"dx":0,"dy":0},{"dx":0,"dy":0},{"dx":0,"dy":0},{"dx":0,"dy":0},{"dx":0,"dy":0},{"dx":0,"dy":0},{"dx":0,"dy":0},{"dx":0,"dy":0},{"dx":0,"dy":0},{"dx":0,"dy":0},{"dx":0,"dy":0},{"dx":0,"dy":0},{"dx":0,"dy":0},{"dx":0,"dy":0},{"dx":0,"dy":0},{"dx":0,"dy":0},{"dx":0,"dy":0},{"dx":0,"dy":0},{"dx":0,"dy":0},{"dx":0,"dy":0},{"dx":0,"dy":0},{"dx":0,"dy":0},{"dx":0,"dy":0},{"dx":0,"dy":0},{"dx":0,"dy":0},{"dx":0,"dy":0},{"dx":0,"dy":0},{"dx":0,"dy":0},{"dx":0,"dy":0},{"dx":0,"dy":0},{"dx":0,"dy":0},{"dx":-8,"dy":-2},{"dx":-10,"dy":-1},{"dx":-10,"dy":0},{"dx":-19,"dy":5},{"dx":-13,"dy":5},{"dx":-11,"dy":5},{"dx":-14,"dy":9},{"dx":-7,"dy":3},{"dx":-5,"dy":4},{"dx":-2,"dy":4},{"dx":0,"dy":0},{"dx":-1,"dy":1},{"dx":0,"dy":0},{"dx":0,"dy":0},{"dx":2,"dy":0},{"dx":0,"dy":0},{"dx":0,"dy":0},{"dx":0,"dy":0},{"dx":0,"dy":0},{"dx":0,"dy":0},{"dx":0,"dy":0},{"dx":0,"dy":0},{"dx":0,"dy":0},{"dx":0,"dy":0},{"dx":0,"dy":0},{"dx":0,"dy":0},{"dx":0,"dy":0},{"dx":-10,"dy":-10},{"dx":-13,"dy":-7},{"dx":-17,"dy":-6},{"dx":-35,"dy":-7},{"dx":-21,"dy":-4},{"dx":-19,"dy":-2},{"dx":-18,"dy":-3},{"dx":-7,"dy":0},{"dx":-5,"dy":0},{"dx":-4,"dy":0},{"dx":-5,"dy":3},{"dx":0,"dy":0},{"dx":0,"dy":7},{"dx":3,"dy":4},{"dx":4,"dy":3},{"dx":5,"dy":4},{"dx":3,"dy":3},{"dx":4,"dy":2},{"dx":17,"dy":0},{"dx":17,"dy":-2},{"dx":16,"dy":-5},{"dx":31,"dy":-7},{"dx":19,"dy":-5},{"dx":17,"dy":-4},{"dx":20,"dy":-4},{"dx":11,"dy":-3},{"dx":10,"dy":0},{"dx":15,"dy":2},{"dx":8,"dy":5},{"dx":9,"dy":8},{"dx":11,"dy":14},{"dx":4,"dy":9},{"dx":2,"dy":11},{"dx":-3,"dy":12},{"dx":-14,"dy":19},{"dx":-14,"dy":14},{"dx":-19,"dy":17},{"dx":-25,"dy":27},{"dx":-12,"dy":17},{"dx":-8,"dy":17},{"dx":-9,"dy":23},{"dx":-1,"dy":11},{"dx":2,"dy":11},{"dx":12,"dy":15},{"dx":15,"dy":9},{"dx":23,"dy":8},{"dx":48,"dy":8},{"dx":33,"dy":3},{"dx":38,"dy":1},{"dx":40,"dy":0},{"dx":18,"dy":-3},{"dx":14,"dy":-3},{"dx":18,"dy":-7},{"dx":8,"dy":-5},{"dx":6,"dy":-4},{"dx":4,"dy":-5},{"dx":2,"dy":-5},{"dx":-1,"dy":-7},{"dx":-16,"dy":-8},{"dx":-17,"dy":-4},{"dx":-22,"dy":-5},{"dx":-39,"dy":-7},{"dx":-34,"dy":-3},{"dx":-37,"dy":-5},{"dx":-60,"dy":-5},{"dx":-36,"dy":-3},{"dx":-25,"dy":-1},{"dx":-24,"dy":-4},{"dx":-7,"dy":-2},{"dx":-7,"dy":-2},{"dx":-6,"dy":-8},{"dx":0,"dy":-5},{"dx":2,"dy":-9},{"dx":10,"dy":-17},{"dx":13,"dy":-15},{"dx":16,"dy":-17},{"dx":24,"dy":-23},{"dx":14,"dy":-11},{"dx":12,"dy":-8},{"dx":13,"dy":-10},{"dx":6,"dy":-5},{"dx":6,"dy":-2},{"dx":3,"dy":-3},{"dx":1,"dy":-1},{"dx":0,"dy":-1},{"dx":0,"dy":0},{"dx":-2,"dy":1},{"dx":-2,"dy":4},{"dx":4,"dy":15},{"dx":9,"dy":7},{"dx":13,"dy":5},{"dx":21,"dy":3},{"dx":16,"dy":1},{"dx":13,"dy":0},{"dx":16,"dy":-2},{"dx":11,"dy":-1},{"dx":7,"dy":-1},{"dx":5,"dy":0},{"dx":5,"dy":0},{"dx":1,"dy":0},{"dx":3,"dy":1},{"dx":2,"dy":6},{"dx":2,"dy":5},{"dx":3,"dy":5},{"dx":9,"dy":7},{"dx":8,"dy":6},{"dx":15,"dy":9},{"dx":10,"dy":3},{"dx":10,"dy":2},{"dx":8,"dy":2},{"dx":6,"dy":0},{"dx":6,"dy":-3},{"dx":10,"dy":-9},{"dx":3,"dy":-8},{"dx":3,"dy":-9},{"dx":2,"dy":-9},{"dx":0,"dy":-7},{"dx":0,"dy":-6},{"dx":-5,"dy":-8},{"dx":0,"dy":0},{"dx":-1,"dy":0},{"dx":0,"dy":0},{"dx":0,"dy":0},{"dx":0,"dy":0},{"dx":0,"dy":0},{"dx":0,"dy":0},{"dx":0,"dy":0},{"dx":0,"dy":0},{"dx":0,"dy":0},{"dx":0,"dy":0},{"dx":0,"dy":0},{"dx":0,"dy":0},{"dx":0,"dy":0},{"dx":0,"dy":0},{"dx":0,"dy":0},{"dx":0,"dy":0},{"dx":0,"dy":0},{"dx":2,"dy":-23},{"dx":3,"dy":-25},{"dx":4,"dy":-32},{"dx":0,"dy":-12},{"dx":-1,"dy":-9},{"dx":-4,"dy":-10},{"dx":-7,"dy":-12},{"dx":-8,"dy":-9},{"dx":-14,"dy":-12},{"dx":-10,"dy":-7},{"dx":-8,"dy":-7},{"dx":-12,"dy":-8},{"dx":-11,"dy":-5},{"dx":-8,"dy":-6},{"dx":-7,"dy":-5},{"dx":-11,"dy":-6},{"dx":-10,"dy":-6},{"dx":-17,"dy":-6},{"dx":-14,"dy":-4},{"dx":-17,"dy":-4},{"dx":-23,"dy":-1},{"dx":-14,"dy":0},{"dx":-12,"dy":3},{"dx":-16,"dy":9},{"dx":-9,"dy":7},{"dx":-10,"dy":10},{"dx":-14,"dy":21},{"dx":-6,"dy":15},{"dx":-4,"dy":14},{"dx":-5,"dy":21},{"dx":-1,"dy":13},{"dx":-2,"dy":11},{"dx":0,"dy":12},{"dx":2,"dy":14},{"dx":4,"dy":8},{"dx":6,"dy":7},{"dx":16,"dy":6},{"dx":15,"dy":0},{"dx":16,"dy":-3},{"dx":34,"dy":-16},{"dx":20,"dy":-15},{"dx":18,"dy":-16},{"dx":14,"dy":-16},{"dx":4,"dy":-7},{"dx":0,"dy":-1},{"dx":-4,"dy":-11},{"dx":-8,"dy":-2},{"dx":-13,"dy":-2},{"dx":-31,"dy":3},{"dx":-27,"dy":6},{"dx":-27,"dy":10},{"dx":-37,"dy":19},{"dx":-21,"dy":12},{"dx":-19,"dy":15},{"dx":-18,"dy":18},{"dx":-9,"dy":12},{"dx":-8,"dy":12},{"dx":-9,"dy":18},{"dx":-1,"dy":9},{"dx":0,"dy":12},{"dx":6,"dy":18},{"dx":8,"dy":12},{"dx":9,"dy":11},{"dx":15,"dy":18},{"dx":12,"dy":10},{"dx":12,"dy":9},{"dx":24,"dy":13},{"dx":23,"dy":8},{"dx":24,"dy":4},{"dx":42,"dy":1},{"dx":28,"dy":-3},{"dx":26,"dy":-4},{"dx":29,"dy":-7},{"dx":15,"dy":-2},{"dx":13,"dy":-3},{"dx":18,"dy":-5},{"dx":14,"dy":-5},{"dx":11,"dy":-5},{"dx":16,"dy":-10},{"dx":5,"dy":-3},{"dx":6,"dy":-3},{"dx":1,"dy":-1},{"dx":0,"dy":0},{"dx":-9,"dy":-4},{"dx":-26,"dy":-2},{"dx":-30,"dy":-1},{"dx":-34,"dy":-1},{"dx":-50,"dy":-4},{"dx":-34,"dy":-4},{"dx":-27,"dy":-5},{"dx":-36,"dy":-15},{"dx":-22,"dy":-12},{"dx":-16,"dy":-10},{"dx":-26,"dy":-16},{"dx":-13,"dy":-9},{"dx":-13,"dy":-9},{"dx":-17,"dy":-14},{"dx":-9,"dy":-9},{"dx":-7,"dy":-10},{"dx":-10,"dy":-16},{"dx":-4,"dy":-14},{"dx":-3,"dy":-11},{"dx":-2,"dy":-18},{"dx":-2,"dy":-11},{"dx":1,"dy":-16},{"dx":3,"dy":-11},{"dx":7,"dy":-15},{"dx":10,"dy":-14},{"dx":25,"dy":-22},{"dx":16,"dy":-12},{"dx":20,"dy":-12},{"dx":34,"dy":-12},{"dx":22,"dy":-4},{"dx":21,"dy":-4},{"dx":18,"dy":-2},{"dx":6,"dy":0},{"dx":6,"dy":1},{"dx":7,"dy":3},{"dx":11,"dy":4},{"dx":10,"dy":7},{"dx":17,"dy":12},{"dx":11,"dy":9},{"dx":9,"dy":8},{"dx":7,"dy":8},{"dx":4,"dy":7},{"dx":3,"dy":7},{"dx":3,"dy":18},{"dx":0,"dy":12},{"dx":0,"dy":14},{"dx":0,"dy":20},{"dx":0,"dy":13},{"dx":5,"dy":11},{"dx":14,"dy":18},{"dx":12,"dy":12},{"dx":22,"dy":14},{"dx":44,"dy":23},{"dx":32,"dy":12},{"dx":35,"dy":7},{"dx":55,"dy":11},{"dx":30,"dy":7},{"dx":17,"dy":3},{"dx":12,"dy":3},{"dx":8,"dy":2},{"dx":5,"dy":1},{"dx":1,"dy":0},{"dx":4,"dy":2},{"dx":2,"dy":3},{"dx":2,"dy":6},{"dx":0,"dy":8},{"dx":2,"dy":16},{"dx":2,"dy":20},{"dx":1,"dy":13},{"dx":1,"dy":11},{"dx":2,"dy":13},{"dx":3,"dy":10},{"dx":3,"dy":8},{"dx":2,"dy":8},{"dx":8,"dy":10},{"dx":5,"dy":3},{"dx":8,"dy":2},{"dx":8,"dy":-1},{"dx":9,"dy":-3},{"dx":14,"dy":-17},{"dx":8,"dy":-15},{"dx":7,"dy":-16},{"dx":5,"dy":-28},{"dx":1,"dy":-19},{"dx":-1,"dy":-21},{"dx":-9,"dy":-30},{"dx":-8,"dy":-16},{"dx":-9,"dy":-20},{"dx":-12,"dy":-23},{"dx":-10,"dy":-13},{"dx":-11,"dy":-20},{"dx":-14,"dy":-21},{"dx":-8,"dy":-14},{"dx":-6,"dy":-10},{"dx":-13,"dy":-15},{"dx":-10,"dy":-4},{"dx":-12,"dy":-3},{"dx":-21,"dy":3},{"dx":-16,"dy":5},{"dx":-23,"dy":11},{"dx":-40,"dy":21},{"dx":-22,"dy":12},{"dx":-18,"dy":10},{"dx":-17,"dy":10},{"dx":-5,"dy":4},{"dx":-1,"dy":0},{"dx":0,"dy":1},{"dx":-1,"dy":0},{"dx":0,"dy":0},{"dx":4,"dy":-9},{"dx":12,"dy":-22},{"dx":8,"dy":-19},{"dx":4,"dy":-16},{"dx":1,"dy":-23},{"dx":-6,"dy":-18},{"dx":-8,"dy":-14},{"dx":-17,"dy":-16},{"dx":-24,"dy":-13},{"dx":-29,"dy":-12},{"dx":-55,"dy":-22},{"dx":-35,"dy":-9},{"dx":-30,"dy":-9},{"dx":-33,"dy":-5},{"dx":-16,"dy":0},{"dx":-12,"dy":1},{"dx":-13,"dy":9},{"dx":-7,"dy":8},{"dx":-4,"dy":11},{"dx":-2,"dy":16},{"dx":3,"dy":12},{"dx":9,"dy":11},{"dx":16,"dy":18},{"dx":15,"dy":10},{"dx":13,"dy":8},{"dx":18,"dy":8},{"dx":5,"dy":2},{"dx":1,"dy":0},{"dx":4,"dy":2},{"dx":0,"dy":0},{"dx":0,"dy":0},{"dx":-18,"dy":1},{"dx":-24,"dy":0},{"dx":-28,"dy":2},{"dx":-44,"dy":7},{"dx":-28,"dy":8},{"dx":-27,"dy":10},{"dx":-31,"dy":18},{"dx":-16,"dy":12},{"dx":-10,"dy":11},{"dx":-9,"dy":17},{"dx":-3,"dy":6},{"dx":-1,"dy":9},{"dx":6,"dy":15},{"dx":13,"dy":7},{"dx":25,"dy":7},{"dx":53,"dy":6},{"dx":38,"dy":2},{"dx":39,"dy":1},{"dx":51,"dy":5},{"dx":25,"dy":4},{"dx":14,"dy":4},{"dx":11,"dy":4},{"dx":1,"dy":0},{"dx":3,"dy":3},{"dx":0,"dy":2},{"dx":0,"dy":4},{"dx":-2,"dy":6},{"dx":-10,"dy":12},{"dx":-6,"dy":7},{"dx":-4,"dy":7},{"dx":-3,"dy":8},{"dx":0,"dy":7}],"trial_type":"plugin-moving-dots-2","trial_index":22,"plugin_version":"0.0.1","time_elapsed":167228},{"task":"fixation","rt":2221,"stimulus":"<div style=\"font-size:60px;\">+</div>","response":" ","trial_type":"html-keyboard-response","trial_index":23,"plugin_version":"2.1.0","time_elapsed":169450},{"task":"movingdots","control_change":0,"mouse_data":[{"dx":0,"dy":0},{"dx":0,"dy":0},{"dx":0,"dy":0},{"dx":0,"dy":0},{"dx":0,"dy":0},{"dx":0,"dy":0},{"dx":0,"dy":0},{"dx":0,"dy":0},{"dx":0,"dy":0},{"dx":0,"dy":0},{"dx":0,"dy":0},{"dx":0,"dy":0},{"dx":0,"dy":0},{"dx":0,"dy":0},{"dx":0,"dy":0},{"dx":0,"dy":0},{"dx":0,"dy":0},{"dx":0,"dy":0},{"dx":0,"dy":0},{"dx":0,"dy":0},{"dx":0,"dy":0},{"dx":0,"dy":0},{"dx":0,"dy":0},{"dx":0,"dy":0},{"dx":0,"dy":0},{"dx":0,"dy":0},{"dx":0,"dy":0},{"dx":0,"dy":0},{"dx":0,"dy":0},{"dx":0,"dy":0},{"dx":0,"dy":0},{"dx":0,"dy":0},{"dx":0,"dy":0},{"dx":0,"dy":0},{"dx":0,"dy":0},{"dx":0,"dy":0},{"dx":0,"dy":0},{"dx":0,"dy":0},{"dx":0,"dy":0},{"dx":0,"dy":0},{"dx":0,"dy":0},{"dx":0,"dy":0},{"dx":0,"dy":0},{"dx":0,"dy":0},{"dx":0,"dy":0},{"dx":0,"dy":0},{"dx":0,"dy":0},{"dx":2,"dy":-4},{"dx":9,"dy":-12},{"dx":10,"dy":-13},{"dx":4,"dy":-6},{"dx":6,"dy":-5},{"dx":5,"dy":-5},{"dx":12,"dy":-8},{"dx":12,"dy":-6},{"dx":22,"dy":-9},{"dx":19,"dy":-7},{"dx":19,"dy":-5},{"dx":22,"dy":-4},{"dx":13,"dy":0},{"dx":11,"dy":0},{"dx":6,"dy":0},{"dx":5,"dy":1},{"dx":4,"dy":2},{"dx":10,"dy":7},{"dx":6,"dy":6},{"dx":5,"dy":6},{"dx":4,"dy":7},{"dx":2,"dy":6},{"dx":2,"dy":8},{"dx":0,"dy":15},{"dx":0,"dy":10},{"dx":-2,"dy":7},{"dx":-4,"dy":10},{"dx":-9,"dy":14},{"dx":-11,"dy":11},{"dx":-16,"dy":14},{"dx":-15,"dy":9},{"dx":-14,"dy":8},{"dx":-22,"dy":9},{"dx":-22,"dy":6},{"dx":-21,"dy":5},{"dx":-26,"dy":5},{"dx":-17,"dy":2},{"dx":-12,"dy":1},{"dx":-20,"dy":-2},{"dx":-14,"dy":-2},{"dx":-11,"dy":-3},{"dx":-21,"dy":-6},{"dx":-13,"dy":-5},{"dx":-14,"dy":-6},{"dx":-21,"dy":-6},{"dx":-14,"dy":-3},{"dx":-16,"dy":-1},{"dx":-24,"dy":1},{"dx":-14,"dy":4},{"dx":-19,"dy":9},{"dx":-20,"dy":10},{"dx":-10,"dy":9},{"dx":-10,"dy":9},{"dx":-10,"dy":12},{"dx":-4,"dy":8},{"dx":-4,"dy":7},{"dx":-3,"dy":6},{"dx":-1,"dy":7},{"dx":0,"dy":0},{"dx":0,"dy":0},{"dx":0,"dy":0},{"dx":0,"dy":0},{"dx":0,"dy":-6},{"dx":-2,"dy":-14},{"dx":-2,"dy":-15},{"dx":-6,"dy":-27},{"dx":-8,"dy":-21},{"dx":-10,"dy":-21},{"dx":-12,"dy":-31},{"dx":-4,"dy":-19},{"dx":-3,"dy":-16},{"dx":-1,"dy":-25},{"dx":0,"dy":-17},{"dx":1,"dy":-14},{"dx":8,"dy":-27},{"dx":6,"dy":-16},{"dx":8,"dy":-14},{"dx":16,"dy":-24},{"dx":11,"dy":-15},{"dx":16,"dy":-14},{"dx":21,"dy":-13},{"dx":29,"dy":-17},{"dx":14,"dy":-6},{"dx":12,"dy":-4},{"dx":18,"dy":-4},{"dx":14,"dy":-2},{"dx":20,"dy":0},{"dx":15,"dy":0},{"dx":16,"dy":2},{"dx":24,"dy":5},{"dx":13,"dy":4},{"dx":11,"dy":4},{"dx":4,"dy":3},{"dx":4,"dy":4},{"dx":0,"dy":0},{"dx":0,"dy":1},{"dx":-2,"dy":6},{"dx":-13,"dy":6},{"dx":-20,"dy":7},{"dx":-41,"dy":13},{"dx":-27,"dy":9},{"dx":-26,"dy":11},{"dx":-13,"dy":5},{"dx":-12,"dy":8},{"dx":-13,"dy":11},{"dx":-9,"dy":10},{"dx":-8,"dy":11},{"dx":-11,"dy":20},{"dx":-5,"dy":17},{"dx":-4,"dy":17},{"dx":-2,"dy":27},{"dx":0,"dy":17},{"dx":0,"dy":17},{"dx":3,"dy":19},{"dx":6,"dy":30},{"dx":5,"dy":20},{"dx":9,"dy":22},{"dx":17,"dy":33},{"dx":13,"dy":18},{"dx":18,"dy":26},{"dx":17,"dy":17},{"dx":17,"dy":14},{"dx":28,"dy":19},{"dx":23,"dy":10},{"dx":27,"dy":8},{"dx":32,"dy":5},{"dx":52,"dy":5},{"dx":32,"dy":-1},{"dx":31,"dy":-3},{"dx":21,"dy":-3},{"dx":9,"dy":-3},{"dx":7,"dy":-3},{"dx":4,"dy":-5},{"dx":2,"dy":-5},{"dx":1,"dy":-7},{"dx":-8,"dy":-22},{"dx":-11,"dy":-18},{"dx":-16,"dy":-26},{"dx":-25,"dy":-43},{"dx":-14,"dy":-31},{"dx":-10,"dy":-29},{"dx":-6,"dy":-46},{"dx":2,"dy":-29},{"dx":5,"dy":-24},{"dx":17,"dy":-38},{"dx":11,"dy":-19},{"dx":10,"dy":-12},{"dx":13,"dy":-17},{"dx":10,"dy":-8},{"dx":10,"dy":-9},{"dx":14,"dy":-8},{"dx":10,"dy":-4},{"dx":10,"dy":0},{"dx":14,"dy":1},{"dx":6,"dy":3},{"dx":4,"dy":6},{"dx":4,"dy":7},{"dx":3,"dy":8},{"dx":2,"dy":14},{"dx":0,"dy":20},{"dx":-2,"dy":14},{"dx":-6,"dy":18},{"dx":-10,"dy":30},{"dx":-5,"dy":21},{"dx":-5,"dy":21},{"dx":-4,"dy":25},{"dx":0,"dy":15},{"dx":0,"dy":14},{"dx":5,"dy":17},{"dx":3,"dy":11},{"dx":6,"dy":9},{"dx":16,"dy":13},{"dx":12,"dy":5},{"dx":14,"dy":3},{"dx":23,"dy":3},{"dx":16,"dy":0},{"dx":16,"dy":-1},{"dx":21,"dy":-8},{"dx":12,"dy":-9},{"dx":11,"dy":-10},{"dx":16,"dy":-21},{"dx":8,"dy":-14},{"dx":6,"dy":-14},{"dx":6,"dy":-21},{"dx":0,"dy":-14},{"dx":0,"dy":-13},{"dx":-3,"dy":-22},{"dx":-5,"dy":-18},{"dx":-8,"dy":-16},{"dx":-17,"dy":-34},{"dx":-15,"dy":-21},{"dx":-14,"dy":-20},{"dx":-24,"dy":-32},{"dx":-14,"dy":-18},{"dx":-12,"dy":-10},{"dx":-20,"dy":-15},{"dx":-14,"dy":-4},{"dx":-14,"dy":-3},{"dx":-24,"dy":-1},{"dx":-14,"dy":2},{"dx":-13,"dy":3},{"dx":-20,"dy":10},{"dx":-13,"dy":9},{"dx":-10,"dy":11},{"dx":-17,"dy":19},{"dx":-7,"dy":12},{"dx":-7,"dy":14},{"dx":-8,"dy":19},{"dx":-7,"dy":13},{"dx":-7,"dy":13},{"dx":-16,"dy":22},{"dx":-9,"dy":16},{"dx":-8,"dy":13},{"dx":-8,"dy":15},{"dx":-9,"dy":18},{"dx":-7,"dy":10},{"dx":-5,"dy":7},{"dx":-1,"dy":1},{"dx":0,"dy":1},{"dx":-1,"dy":0},{"dx":0,"dy":-3},{"dx":1,"dy":-11},{"dx":2,"dy":-13},{"dx":2,"dy":-22},{"dx":0,"dy":-15},{"dx":0,"dy":-16},{"dx":-2,"dy":-20},{"dx":-3,"dy":-15},{"dx":-4,"dy":-15},{"dx":-5,"dy":-18},{"dx":-2,"dy":-15},{"dx":-4,"dy":-14},{"dx":-6,"dy":-19},{"dx":-6,"dy":-13},{"dx":-7,"dy":-12},{"dx":-6,"dy":-10},{"dx":-5,"dy":-8},{"dx":-5,"dy":-4},{"dx":-4,"dy":-3},{"dx":-5,"dy":0},{"dx":-5,"dy":0},{"dx":-6,"dy":5},{"dx":-8,"dy":12},{"dx":-3,"dy":11},{"dx":-7,"dy":27},{"dx":-4,"dy":19},{"dx":-9,"dy":34},{"dx":-4,"dy":19},{"dx":-4,"dy":20},{"dx":-3,"dy":25},{"dx":0,"dy":14},{"dx":1,"dy":16},{"dx":3,"dy":17},{"dx":8,"dy":25},{"dx":8,"dy":19},{"dx":10,"dy":24},{"dx":6,"dy":14},{"dx":7,"dy":15},{"dx":9,"dy":14},{"dx":9,"dy":19},{"dx":6,"dy":11},{"dx":4,"dy":12},{"dx":5,"dy":17},{"dx":2,"dy":6},{"dx":3,"dy":11},{"dx":1,"dy":17},{"dx":0,"dy":8},{"dx":-2,"dy":6},{"dx":-3,"dy":4},{"dx":-4,"dy":4},{"dx":-4,"dy":2},{"dx":-17,"dy":4},{"dx":-10,"dy":1},{"dx":-11,"dy":0},{"dx":-20,"dy":-2},{"dx":-14,"dy":-4},{"dx":-12,"dy":-6},{"dx":-17,"dy":-11},{"dx":-11,"dy":-10},{"dx":-11,"dy":-13},{"dx":-13,"dy":-27},{"dx":-10,"dy":-28},{"dx":-10,"dy":-35},{"dx":-14,"dy":-59},{"dx":-7,"dy":-38},{"dx":-8,"dy":-36},{"dx":-7,"dy":-43},{"dx":-3,"dy":-25},{"dx":0,"dy":-18},{"dx":1,"dy":-26},{"dx":5,"dy":-17},{"dx":4,"dy":-16},{"dx":5,"dy":-19},{"dx":4,"dy":-13},{"dx":4,"dy":-13},{"dx":9,"dy":-18},{"dx":10,"dy":-11},{"dx":14,"dy":-11},{"dx":31,"dy":-9},{"dx":20,"dy":-1},{"dx":21,"dy":3},{"dx":27,"dy":11},{"dx":19,"dy":11},{"dx":19,"dy":11},{"dx":31,"dy":16},{"dx":19,"dy":11},{"dx":17,"dy":12},{"dx":28,"dy":18},{"dx":21,"dy":11},{"dx":23,"dy":13},{"dx":36,"dy":13},{"dx":21,"dy":7},{"dx":20,"dy":2},{"dx":19,"dy":3},{"dx":6,"dy":1},{"dx":7,"dy":3},{"dx":15,"dy":8},{"dx":7,"dy":6},{"dx":8,"dy":8},{"dx":16,"dy":16},{"dx":9,"dy":12},{"dx":9,"dy":14},{"dx":10,"dy":22},{"dx":8,"dy":13},{"dx":8,"dy":16},{"dx":12,"dy":23},{"dx":5,"dy":15},{"dx":3,"dy":14},{"dx":2,"dy":23},{"dx":-1,"dy":16},{"dx":-6,"dy":17},{"dx":-18,"dy":25},{"dx":-15,"dy":15},{"dx":-18,"dy":15},{"dx":-33,"dy":23},{"dx":-23,"dy":16},{"dx":-26,"dy":16},{"dx":-31,"dy":20},{"dx":-14,"dy":9},{"dx":-10,"dy":8},{"dx":-7,"dy":6},{"dx":-1,"dy":0},{"dx":-1,"dy":1},{"dx":0,"dy":0},{"dx":5,"dy":0},{"dx":14,"dy":-2},{"dx":38,"dy":-12},{"dx":33,"dy":-10},{"dx":34,"dy":-14},{"dx":46,"dy":-19},{"dx":22,"dy":-15},{"dx":20,"dy":-16},{"dx":24,"dy":-30},{"dx":13,"dy":-26},{"dx":8,"dy":-22},{"dx":8,"dy":-40},{"dx":1,"dy":-25},{"dx":-4,"dy":-30},{"dx":-18,"dy":-48},{"dx":-15,"dy":-32},{"dx":-25,"dy":-33},{"dx":-39,"dy":-43},{"dx":-33,"dy":-30},{"dx":-35,"dy":-25},{"dx":-61,"dy":-38},{"dx":-40,"dy":-23},{"dx":-39,"dy":-20},{"dx":-59,"dy":-22},{"dx":-30,"dy":-6},{"dx":-19,"dy":-1},{"dx":-18,"dy":2},{"dx":-6,"dy":4},{"dx":-3,"dy":6},{"dx":-1,"dy":15},{"dx":1,"dy":14},{"dx":4,"dy":15},{"dx":12,"dy":24},{"dx":13,"dy":19},{"dx":16,"dy":21},{"dx":15,"dy":20},{"dx":29,"dy":35},{"dx":18,"dy":23},{"dx":14,"dy":17},{"dx":13,"dy":21},{"dx":8,"dy":12},{"dx":5,"dy":10},{"dx":4,"dy":8},{"dx":1,"dy":7},{"dx":1,"dy":8},{"dx":-3,"dy":18},{"dx":-4,"dy":10},{"dx":-7,"dy":10},{"dx":-10,"dy":16},{"dx":-2,"dy":5},{"dx":-5,"dy":6},{"dx":-3,"dy":5},{"dx":-1,"dy":0},{"dx":-2,"dy":1},{"dx":-5,"dy":-3},{"dx":-2,"dy":-11},{"dx":-4,"dy":-14},{"dx":-6,"dy":-22},{"dx":-7,"dy":-14},{"dx":-14,"dy":-21},{"dx":-12,"dy":-11},{"dx":-17,"dy":-12}],"trial_type":"plugin-moving-dots-2","trial_index":24,"plugin_version":"0.0.1","time_elapsed":176962},{"task":"fixation","rt":1816,"stimulus":"<div style=\"font-size:60px;\">+</div>","response":" ","trial_type":"html-keyboard-response","trial_index":25,"plugin_version":"2.1.0","time_elapsed":178779},{"task":"movingdots","control_change":0,"mouse_data":[{"dx":0,"dy":0},{"dx":0,"dy":0},{"dx":0,"dy":0},{"dx":0,"dy":0},{"dx":0,"dy":0},{"dx":0,"dy":0},{"dx":0,"dy":0},{"dx":0,"dy":0},{"dx":0,"dy":0},{"dx":0,"dy":0},{"dx":0,"dy":0},{"dx":0,"dy":0},{"dx":0,"dy":0},{"dx":0,"dy":0},{"dx":0,"dy":0},{"dx":0,"dy":0},{"dx":0,"dy":0},{"dx":0,"dy":0},{"dx":0,"dy":0},{"dx":0,"dy":0},{"dx":0,"dy":0},{"dx":0,"dy":0},{"dx":0,"dy":0},{"dx":0,"dy":0},{"dx":0,"dy":0},{"dx":0,"dy":0},{"dx":0,"dy":0},{"dx":0,"dy":0},{"dx":0,"dy":0},{"dx":0,"dy":0},{"dx":0,"dy":0},{"dx":0,"dy":0},{"dx":0,"dy":0},{"dx":0,"dy":0},{"dx":-3,"dy":3},{"