[{"success":true,"rt":5324,"trial_type":"fullscreen","trial_index":0,"plugin_version":"2.1.0","time_elapsed":6351},{"task":"fixation","rt":19821,"stimulus":"<div style=\"font-size:60px;\">+</div>","response":" ","trial_type":"html-keyboard-response","trial_index":1,"plugin_version":"2.1.0","time_elapsed":26176},{"task":"movingdots","control_change":0,"mouse_data":[{"dx":0,"dy":0},{"dx":0,"dy":0},{"dx":0,"dy":0},{"dx":0,"dy":0},{"dx":0,"dy":0},{"dx":0,"dy":0},{"dx":0,"dy":0},{"dx":0,"dy":0},{"dx":0,"dy":0},{"dx":0,"dy":0},{"dx":0,"dy":0},{"dx":0,"dy":0},{"dx":0,"dy":0},{"dx":0,"dy":0},{"dx":0,"dy":0},{"dx":0,"dy":0},{"dx":0,"dy":0},{"dx":0,"dy":0},{"dx":0,"dy":0},{"dx":0,"dy":0},{"dx":0,"dy":0},{"dx":0,"dy":0},{"dx":0,"dy":0},{"dx":0,"dy":0},{"dx":0,"dy":0},{"dx":0,"dy":0},{"dx":0,"dy":0},{"dx":0,"dy":0},{"dx":0,"dy":0},{"dx":1,"dy":0},{"dx":3,"dy":0},{"dx":2,"dy":-1},{"dx":2,"dy":0},{"dx":7,"dy":-2},{"dx":1,"dy":0},{"dx":2,"dy":0},{"dx":0,"dy":0},{"dx":1,"dy":-2},{"dx":2,"dy":-9},{"dx":0,"dy":-7},{"dx":0,"dy":-21},{"dx":-2,"dy":-7},{"dx":-1,"dy":-10},{"dx":-3,"dy":-10},{"dx":-2,"dy":-8},{"dx":0,"dy":-1},{"dx":-5,"dy":-10},{"dx":-1,"dy":-1},{"dx":-8,"dy":-6},{"dx":-6,"dy":-3},{"dx":-7,"dy":-3},{"dx":-8,"dy":-3},{"dx":-7,"dy":-3},{"dx":-10,"dy":-2},{"dx":-1,"dy":-1},{"dx":-7,"dy":-3},{"dx":-2,"dy":0},{"dx":-8,"dy":-2},{"dx":-6,"dy":0},{"dx":-10,"dy":0},{"dx":-7,"dy":1},{"dx":-10,"dy":2},{"dx":-1,"dy":0},{"dx":-6,"dy":3},{"dx":-8,"dy":4},{"dx":-7,"dy":5},{"dx":-1,"dy":1},{"dx":-14,"dy":13},{"dx":-7,"dy":8},{"dx":-6,"dy":5},{"dx":-6,"dy":9},{"dx":-6,"dy":8},{"dx":-5,"dy":7},{"dx":-7,"dy":9},{"dx":-4,"dy":6},{"dx":-5,"dy":8},{"dx":-1,"dy":2},{"dx":-2,"dy":7},{"dx":0,"dy":2},{"dx":0,"dy":10},{"dx":0,"dy":9},{"dx":2,"dy":11},{"dx":3,"dy":10},{"dx":4,"dy":9},{"dx":5,"dy":10},{"dx":4,"dy":8},{"dx":1,"dy":2},{"dx":3,"dy":7},{"dx":5,"dy":11},{"dx":3,"dy":9},{"dx":1,"dy":2},{"dx":7,"dy":19},{"dx":4,"dy":8},{"dx":5,"dy":7},{"dx":7,"dy":7},{"dx":6,"dy":6},{"dx":8,"dy":5},{"dx":13,"dy":6},{"dx":8,"dy":4},{"dx":9,"dy":3},{"dx":0,"dy":1},{"dx":8,"dy":2},{"dx":6,"dy":3},{"dx":9,"dy":3},{"dx":11,"dy":3},{"dx":8,"dy":2},{"dx":8,"dy":1},{"dx":7,"dy":1},{"dx":1,"dy":0},{"dx":6,"dy":1},{"dx":3,"dy":0},{"dx":8,"dy":1},{"dx":0,"dy":0},{"dx":6,"dy":0},{"dx":2,"dy":-1},{"dx":8,"dy":-2},{"dx":7,"dy":-3},{"dx":2,"dy":-1},{"dx":7,"dy":-3},{"dx":1,"dy":-2},{"dx":2,"dy":-1},{"dx":6,"dy":-5},{"dx":1,"dy":0},{"dx":0,"dy":-2},{"dx":1,"dy":-2},{"dx":2,"dy":-2},{"dx":1,"dy":-3},{"dx":1,"dy":-2},{"dx":1,"dy":-3},{"dx":1,"dy":-2},{"dx":0,"dy":-1},{"dx":2,"dy":-4},{"dx":0,"dy":0},{"dx":1,"dy":-3},{"dx":0,"dy":-2},{"dx":0,"dy":-2},{"dx":0,"dy":-2},{"dx":0,"dy":-3},{"dx":0,"dy":-2},{"dx":0,"dy":-3},{"dx":0,"dy":-3},{"dx":0,"dy":-2},{"dx":0,"dy":-1},{"dx":0,"dy":-2},{"dx":0,"dy":-2},{"dx":-1,"dy":-2},{"dx":-1,"dy":-2},{"dx":-6,"dy":-7},{"dx":-5,"dy":-5},{"dx":-1,"dy":-2},{"dx":-11,"dy":-12},{"dx":-6,"dy":-5},{"dx":-6,"dy":-7},{"dx":-7,"dy":-6},{"dx":-6,"dy":-8},{"dx":-5,"dy":-7},{"dx":-3,"dy":-8},{"dx":-6,"dy":-9},{"dx":-4,"dy":-9},{"dx":-1,"dy":0},{"dx":-1,"dy":-2},{"dx":-3,"dy":-4},{"dx":-1,"dy":-2},{"dx":-2,"dy":-2},{"dx":0,"dy":0},{"dx":-1,"dy":-1},{"dx":0,"dy":0},{"dx":0,"dy":-1},{"dx":-1,"dy":-2},{"dx":-2,"dy":-1},{"dx":0,"dy":-2},{"dx":-1,"dy":-1},{"dx":0,"dy":-1},{"dx":0,"dy":-2},{"dx":0,"dy":-1},{"dx":0,"dy":-2},{"dx":0,"dy":-2},{"dx":5,"dy":-7},{"dx":1,"dy":-1},{"dx":1,"dy":-2},{"dx":3,"dy":-2},{"dx":5,"dy":-3},{"dx":2,"dy":-2},{"dx":3,"dy":-1},{"dx":1,"dy":-1},{"dx":2,"dy":-1},{"dx":5,"dy":-3},{"dx":2,"dy":-1},{"dx":8,"dy":-3},{"dx":9,"dy":-1},{"dx":1,"dy":0},{"dx":5,"dy":-1},{"dx":8,"dy":0},{"dx":1,"dy":0},{"dx":2,"dy":0},{"dx":7,"dy":1},{"dx":6,"dy":4},{"dx":1,"dy":0},{"dx":6,"dy":4},{"dx":0,"dy":2},{"dx":2,"dy":0},{"dx":6,"dy":4},{"dx":2,"dy":1},{"dx":6,"dy":4},{"dx":7,"dy":4},{"dx":1,"dy":1},{"dx":1,"dy":0},{"dx":6,"dy":5},{"dx":2,"dy":1},{"dx":5,"dy":6},{"dx":1,"dy":1},{"dx":5,"dy":5},{"dx":0,"dy":2},{"dx":2,"dy":2},{"dx":1,"dy":2},{"dx":1,"dy":1},{"dx":2,"dy":1},{"dx":2,"dy":2},{"dx":2,"dy":1},{"dx":6,"dy":1},{"dx":9,"dy":0},{"dx":2,"dy":0},{"dx":7,"dy":-2},{"dx":7,"dy":-3},{"dx":2,"dy":-1},{"dx":5,"dy":-3},{"dx":2,"dy":-2},{"dx":2,"dy":-1},{"dx":1,"dy":-1},{"dx":3,"dy":-3},{"dx":1,"dy":-2},{"dx":4,"dy":-6},{"dx":0,"dy":-3},{"dx":4,"dy":-9},{"dx":0,"dy":0},{"dx":1,"dy":-3},{"dx":0,"dy":-3},{"dx":1,"dy":-2},{"dx":1,"dy":-4},{"dx":0,"dy":-1},{"dx":1,"dy":-2},{"dx":0,"dy":-2},{"dx":1,"dy":-1},{"dx":1,"dy":-1},{"dx":9,"dy":-4},{"dx":1,"dy":0},{"dx":1,"dy":0},{"dx":7,"dy":2},{"dx":2,"dy":1},{"dx":6,"dy":2},{"dx":8,"dy":4},{"dx":0,"dy":1},{"dx":5,"dy":4},{"dx":2,"dy":2},{"dx":3,"dy":4},{"dx":2,"dy":10},{"dx":0,"dy":11},{"dx":0,"dy":0},{"dx":0,"dy":7},{"dx":-1,"dy":10},{"dx":-2,"dy":9},{"dx":0,"dy":1},{"dx":-4,"dy":9},{"dx":-2,"dy":7},{"dx":-1,"dy":2},{"dx":-2,"dy":2},{"dx":-6,"dy":4},{"dx":-7,"dy":3},{"dx":-10,"dy":2},{"dx":-8,"dy":0},{"dx":-5,"dy":0},{"dx":-8,"dy":0},{"dx":-10,"dy":0},{"dx":-11,"dy":-2},{"dx":-7,"dy":-1},{"dx":-7,"dy":-1},{"dx":-6,"dy":-1},{"dx":-10,"dy":-3},{"dx":-6,"dy":0},{"dx":-2,"dy":-1},{"dx":-6,"dy":-2},{"dx":-7,"dy":-5},{"dx":0,"dy":0},{"dx":-7,"dy":-7},{"dx":-9,"dy":-5},{"dx":-5,"dy":-4},{"dx":-7,"dy":-4},{"dx":-8,"dy":-4},{"dx":-9,"dy":-3},{"dx":-7,"dy":-3},{"dx":-10,"dy":-5},{"dx":-7,"dy":-3},{"dx":-7,"dy":-4},{"dx":-16,"dy":-7},{"dx":-8,"dy":-3},{"dx":-8,"dy":-5},{"dx":-11,"dy":-4},{"dx":-5,"dy":-4},{"dx":-8,"dy":-3},{"dx":-14,"dy":-3},{"dx":-1,"dy":-1},{"dx":-7,"dy":0},{"dx":-10,"dy":0},{"dx":-2,"dy":0},{"dx":-8,"dy":2},{"dx":-16,"dy":7},{"dx":-1,"dy":0},{"dx":-9,"dy":4},{"dx":-8,"dy":5},{"dx":-6,"dy":7},{"dx":-2,"dy":0},{"dx":-13,"dy":15},{"dx":-4,"dy":6},{"dx":-4,"dy":6},{"dx":-4,"dy":8},{"dx":-2,"dy":6},{"dx":-2,"dy":8},{"dx":-2,"dy":10},{"dx":0,"dy":2},{"dx":0,"dy":9},{"dx":0,"dy":1},{"dx":0,"dy":1},{"dx":4,"dy":9},{"dx":2,"dy":0},{"dx":6,"dy":6},{"dx":7,"dy":5},{"dx":11,"dy":7},{"dx":6,"dy":5},{"dx":7,"dy":4},{"dx":1,"dy":0},{"dx":9,"dy":3},{"dx":1,"dy":0},{"dx":1,"dy":0},{"dx":9,"dy":1},{"dx":7,"dy":0},{"dx":0,"dy":-1},{"dx":7,"dy":-2},{"dx":7,"dy":-3},{"dx":2,"dy":0},{"dx":6,"dy":-3},{"dx":1,"dy":0},{"dx":3,"dy":-1},{"dx":1,"dy":0},{"dx":2,"dy":0},{"dx":5,"dy":9},{"dx":1,"dy":8},{"dx":0,"dy":1},{"dx":0,"dy":2},{"dx":0,"dy":8},{"dx":0,"dy":2},{"dx":0,"dy":9},{"dx":0,"dy":1},{"dx":0,"dy":2},{"dx":0,"dy":2},{"dx":0,"dy":4},{"dx":0,"dy":8},{"dx":0,"dy":1},{"dx":0,"dy":2},{"dx":0,"dy":1},{"dx":0,"dy":1},{"dx":1,"dy":0},{"dx":1,"dy":0},{"dx":2,"dy":0},{"dx":5,"dy":-3},{"dx":5,"dy":-6},{"dx":1,"dy":0},{"dx":6,"dy":-7},{"dx":5,"dy":-7},{"dx":1,"dy":0},{"dx":4,"dy":-8},{"dx":1,"dy":-1},{"dx":1,"dy":-1},{"dx":5,"dy":-7},{"dx":0,"dy":-2},{"dx":4,"dy":-8},{"dx":0,"dy":-1},{"dx":1,"dy":-2},{"dx":0,"dy":-3},{"dx":2,"dy":-9},{"dx":0,"dy":-2},{"dx":0,"dy":-2},{"dx":0,"dy":-10},{"dx":0,"dy":-9},{"dx":-1,"dy":-1},{"dx":-1,"dy":-10},{"dx":-4,"dy":-5},{"dx":-4,"dy":-6},{"dx":-8,"dy":-7},{"dx":-1,"dy":0},{"dx":-8,"dy":-4},{"dx":-7,"dy":-3},{"dx":-6,"dy":-4},{"dx":-1,"dy":-1},{"dx":-9,"dy":-4},{"dx":-8,"dy":-2},{"dx":-9,"dy":-1},{"dx":-2,"dy":0},{"dx":-2,"dy":-2},{"dx":-2,"dy":0},{"dx":-4,"dy":-1},{"dx":-2,"dy":-2},{"dx":-2,"dy":-1},{"dx":-3,"dy":-3},{"dx":-2,"dy":-1},{"dx":-2,"dy":-3},{"dx":-4,"dy":-6},{"dx":-1,"dy":-2},{"dx":-1,"dy":-3},{"dx":-2,"dy":-4},{"dx":0,"dy":-2},{"dx":-1,"dy":-2},{"dx":-1,"dy":-4},{"dx":0,"dy":-4},{"dx":0,"dy":-2},{"dx":0,"dy":-4},{"dx":0,"dy":-3},{"dx":0,"dy":-1},{"dx":1,"dy":-2},{"dx":6,"dy":-5},{"dx":9,"dy":-2},{"dx":1,"dy":0},{"dx":8,"dy":0},{"dx":8,"dy":1},{"dx":7,"dy":4},{"dx":9,"dy":5},{"dx":7,"dy":5},{"dx":6,"dy":5},{"dx":6,"dy":5},{"dx":8,"dy":4},{"dx":8,"dy":3},{"dx":14,"dy":6},{"dx":5,"dy":2},{"dx":8,"dy":4},{"dx":6,"dy":7},{"dx":1,"dy":2},{"dx":4,"dy":6},{"dx":1,"dy":1},{"dx":1,"dy":1},{"dx":5,"dy":7},{"dx":0,"dy":0},{"dx":1,"dy":2},{"dx":2,"dy":6},{"dx":2,"dy":3},{"dx":3,"dy":7}],"trial_type":"plugin-moving-dots-2","trial_index":2,"plugin_version":"0.0.1","time_elapsed":33681},{"task":"fixation","rt":1462,"stimulus":"<div style=\"font-size:60px;\">+</div>","response":" ","trial_type":"html-keyboard-response","trial_index":3,"plugin_version":"2.1.0","time_elapsed":35144},{"task":"movingdots","control_change":0,"mouse_data":[{"dx":0,"dy":0},{"dx":0,"dy":0},{"dx":0,"dy":0},{"dx":0,"dy":0},{"dx":0,"dy":0},{"dx":0,"dy":0},{"dx":0,"dy":0},{"dx":0,"dy":0},{"dx":0,"dy":0},{"dx":0,"dy":0},{"dx":0,"dy":0},{"dx":0,"dy":0},{"dx":0,"dy":0},{"dx":0,"dy":0},{"dx":0,"dy":0},{"dx":0,"dy":0},{"dx":0,"dy":0},{"dx":0,"dy":0},{"dx":0,"dy":0},{"dx":0,"dy":0},{"dx":0,"dy":0},{"dx":0,"dy":0},{"dx":0,"dy":0},{"dx":0,"dy":0},{"dx":0,"dy":-1},{"dx":1,"dy":-2},{"dx":1,"dy":-2},{"dx":1,"dy":-1},{"dx":1,"dy":-2},{"dx":2,"dy":0},{"dx":1,"dy":-1},{"dx":1,"dy":-1},{"dx":1,"dy":-1},{"dx":2,"dy":-1},{"dx":2,"dy":0},{"dx":2,"dy":-1},{"dx":2,"dy":0},{"dx":6,"dy":0},{"dx":0,"dy":0},{"dx":2,"dy":0},{"dx":2,"dy":0},{"dx":1,"dy":0},{"dx":1,"dy":0},{"dx":3,"dy":0},{"dx":2,"dy":0},{"dx":1,"dy":1},{"dx":3,"dy":1},{"dx":1,"dy":0},{"dx":2,"dy":0},{"dx":8,"dy":1},{"dx":1,"dy":0},{"dx":2,"dy":0},{"dx":7,"dy":-1},{"dx":8,"dy":-1},{"dx":1,"dy":-1},{"dx":8,"dy":-2},{"dx":2,"dy":0},{"dx":1,"dy":-1},{"dx":2,"dy":-1},{"dx":1,"dy":0},{"dx":2,"dy":-1},{"dx":2,"dy":-1},{"dx":2,"dy":0},{"dx":1,"dy":-1},{"dx":7,"dy":-3},{"dx":1,"dy":0},{"dx":2,"dy":-1},{"dx":2,"dy":-2},{"dx":2,"dy":-1},{"dx":1,"dy":-1},{"dx":1,"dy":-1},{"dx":2,"dy":-2},{"dx":0,"dy":-2},{"dx":0,"dy":-4},{"dx":0,"dy":-2},{"dx":0,"dy":-2},{"dx":-2,"dy":-3},{"dx":-1,"dy":-2},{"dx":-6,"dy":-5},{"dx":-1,"dy":-1},{"dx":-2,"dy":-1},{"dx":-2,"dy":0},{"dx":-3,"dy":-1},{"dx":-3,"dy":0},{"dx":-7,"dy":-2},{"dx":-8,"dy":0},{"dx":-1,"dy":0},{"dx":-10,"dy":1},{"dx":-1,"dy":0},{"dx":-7,"dy":3},{"dx":-2,"dy":0},{"dx":-7,"dy":4},{"dx":-7,"dy":4},{"dx":-1,"dy":0},{"dx":-3,"dy":1},{"dx":-2,"dy":1},{"dx":-2,"dy":1},{"dx":-3,"dy":0},{"dx":-2,"dy":2},{"dx":-1,"dy":0},{"dx":-3,"dy":1},{"dx":0,"dy":0},{"dx":-3,"dy":1},{"dx":-2,"dy":1},{"dx":-3,"dy":1},{"dx":-2,"dy":1},{"dx":-3,"dy":1},{"dx":-8,"dy":3},{"dx":0,"dy":0},{"dx":-3,"dy":1},{"dx":-3,"dy":0},{"dx":-5,"dy":1},{"dx":-2,"dy":0},{"dx":-2,"dy":0},{"dx":-7,"dy":0},{"dx":-3,"dy":0},{"dx":-3,"dy":0},{"dx":-6,"dy":0},{"dx":-3,"dy":-1},{"dx":-1,"dy":0},{"dx":-8,"dy":-1},{"dx":-1,"dy":0},{"dx":-3,"dy":0},{"dx":-3,"dy":0},{"dx":-1,"dy":0},{"dx":-9,"dy":3},{"dx":-2,"dy":1},{"dx":-1,"dy":1},{"dx":-4,"dy":6},{"dx":-1,"dy":2},{"dx":0,"dy":1},{"dx":-1,"dy":1},{"dx":0,"dy":2},{"dx":0,"dy":1},{"dx":3,"dy":9},{"dx":3,"dy":8},{"dx":1,"dy":1},{"dx":4,"dy":5},{"dx":2,"dy":1},{"dx":7,"dy":6},{"dx":8,"dy":3},{"dx":8,"dy":1},{"dx":0,"dy":0},{"dx":8,"dy":1},{"dx":1,"dy":0},{"dx":8,"dy":0},{"dx":2,"dy":0},{"dx":7,"dy":1},{"dx":6,"dy":1},{"dx":1,"dy":1},{"dx":8,"dy":2},{"dx":1,"dy":0},{"dx":8,"dy":4},{"dx":1,"dy":0},{"dx":1,"dy":1},{"dx":9,"dy":2},{"dx":1,"dy":1},{"dx":2,"dy":0},{"dx":7,"dy":1},{"dx":0,"dy":0},{"dx":2,"dy":0},{"dx":3,"dy":0},{"dx":1,"dy":0},{"dx":2,"dy":0},{"dx":7,"dy":0},{"dx":1,"dy":0},{"dx":2,"dy":0},{"dx":8,"dy":-2},{"dx":0,"dy":0},{"dx":1,"dy":0},{"dx":2,"dy":0},{"dx":0,"dy":-1},{"dx":0,"dy":0},{"dx":1,"dy":0},{"dx":1,"dy":-1},{"dx":0,"dy":0},{"dx":1,"dy":-3},{"dx":1,"dy":-1},{"dx":1,"dy":-2},{"dx":1,"dy":-2},{"dx":1,"dy":-2},{"dx":1,"dy":-1},{"dx":1,"dy":-2},{"dx":0,"dy":-2},{"dx":1,"dy":-1},{"dx":0,"dy":-3},{"dx":0,"dy":-2},{"dx":0,"dy":-1},{"dx":0,"dy":-3},{"dx":-2,"dy":-2},{"dx":0,"dy":-2},{"dx":-2,"dy":-3},{"dx":-1,"dy":-2},{"dx":-2,"dy":-3},{"dx":-2,"dy":-2},{"dx":-1,"dy":-2},{"dx":-2,"dy":-1},{"dx":-3,"dy":-3},{"dx":-6,"dy":-6},{"dx":0,"dy":0},{"dx":-3,"dy":-2},{"dx":-6,"dy":-5},{"dx":-1,"dy":0},{"dx":-2,"dy":-3},{"dx":-3,"dy":-1},{"dx":-6,"dy":-4},{"dx":-2,"dy":0},{"dx":-2,"dy":-2},{"dx":-5,"dy":-3},{"dx":-3,"dy":-1},{"dx":-2,"dy":-1},{"dx":-2,"dy":0},{"dx":-4,"dy":-2},{"dx":-2,"dy":0},{"dx":-9,"dy":-3},{"dx":0,"dy":0},{"dx":-3,"dy":0},{"dx":-1,"dy":-1},{"dx":-3,"dy":0},{"dx":-1,"dy":0},{"dx":-2,"dy":0},{"dx":-4,"dy":0},{"dx":-2,"dy":0},{"dx":-2,"dy":1},{"dx":-8,"dy":5},{"dx":-6,"dy":4},{"dx":0,"dy":1},{"dx":-3,"dy":2},{"dx":-1,"dy":1},{"dx":-2,"dy":2},{"dx":0,"dy":0},{"dx":-1,"dy":1},{"dx":-1,"dy":2},{"dx":-1,"dy":1},{"dx":0,"dy":2},{"dx":0,"dy":1},{"dx":-1,"dy":2},{"dx":0,"dy":2},{"dx":0,"dy":2},{"dx":5,"dy":7},{"dx":6,"dy":4},{"dx":0,"dy":0},{"dx":7,"dy":5},{"dx":15,"dy":6},{"dx":9,"dy":2},{"dx":0,"dy":0},{"dx":8,"dy":1},{"dx":7,"dy":1},{"dx":7,"dy":1},{"dx":18,"dy":1},{"dx":1,"dy":0},{"dx":7,"dy":0},{"dx":9,"dy":0},{"dx":1,"dy":0},{"dx":9,"dy":0},{"dx":8,"dy":-1},{"dx":7,"dy":-1},{"dx":10,"dy":-2},{"dx":11,"dy":0},{"dx":1,"dy":0},{"dx":6,"dy":0},{"dx":7,"dy":2},{"dx":1,"dy":1},{"dx":4,"dy":6},{"dx":3,"dy":9},{"dx":0,"dy":1},{"dx":1,"dy":9},{"dx":0,"dy":10},{"dx":0,"dy":9},{"dx":0,"dy":1},{"dx":-1,"dy":8},{"dx":0,"dy":1},{"dx":-2,"dy":3},{"dx":-3,"dy":7},{"dx":-6,"dy":7},{"dx":-8,"dy":3},{"dx":-10,"dy":4},{"dx":-10,"dy":0},{"dx":-1,"dy":0},{"dx":-14,"dy":0},{"dx":-8,"dy":-2},{"dx":-8,"dy":-2},{"dx":-8,"dy":-3},{"dx":-8,"dy":-2},{"dx":-7,"dy":-3},{"dx":-1,"dy":-1},{"dx":-3,"dy":-2},{"dx":-2,"dy":-1},{"dx":-1,"dy":-1},{"dx":-4,"dy":-2},{"dx":-2,"dy":-2},{"dx":-4,"dy":-7},{"dx":-2,"dy":-3},{"dx":-2,"dy":-7},{"dx":-1,"dy":-2},{"dx":-2,"dy":-10},{"dx":0,"dy":-2},{"dx":-2,"dy":-4},{"dx":0,"dy":-2},{"dx":-1,"dy":-3},{"dx":-2,"dy":-8},{"dx":0,"dy":-2},{"dx":-1,"dy":-2},{"dx":0,"dy":-3},{"dx":-1,"dy":-3},{"dx":0,"dy":-2},{"dx":0,"dy":-2},{"dx":-1,"dy":-3},{"dx":0,"dy":-1},{"dx":-1,"dy":-2},{"dx":-2,"dy":-4},{"dx":-2,"dy":-3},{"dx":-1,"dy":-2},{"dx":-4,"dy":-10},{"dx":0,"dy":0},{"dx":-1,"dy":-2},{"dx":-2,"dy":-3},{"dx":-4,"dy":-7},{"dx":0,"dy":0},{"dx":-2,"dy":-3},{"dx":-2,"dy":-3},{"dx":-2,"dy":-2},{"dx":-2,"dy":-3},{"dx":-2,"dy":-2},{"dx":-2,"dy":-1},{"dx":-3,"dy":-1},{"dx":-9,"dy":0},{"dx":-1,"dy":0},{"dx":-14,"dy":9},{"dx":-2,"dy":0},{"dx":-6,"dy":7},{"dx":-6,"dy":7},{"dx":0,"dy":0},{"dx":-1,"dy":1},{"dx":-1,"dy":4},{"dx":-1,"dy":1},{"dx":-1,"dy":10},{"dx":0,"dy":1},{"dx":0,"dy":2},{"dx":3,"dy":9},{"dx":1,"dy":1},{"dx":4,"dy":5},{"dx":1,"dy":2},{"dx":5,"dy":6},{"dx":5,"dy":4},{"dx":8,"dy":3},{"dx":8,"dy":0},{"dx":8,"dy":0},{"dx":8,"dy":-1},{"dx":6,"dy":-1},{"dx":9,"dy":-2},{"dx":8,"dy":-3},{"dx":9,"dy":-4},{"dx":1,"dy":0},{"dx":4,"dy":-2},{"dx":9,"dy":-4},{"dx":0,"dy":0},{"dx":2,"dy":-2},{"dx":3,"dy":-1},{"dx":1,"dy":-1},{"dx":2,"dy":-2},{"dx":6,"dy":-5},{"dx":1,"dy":-2},{"dx":1,"dy":-1},{"dx":1,"dy":-3},{"dx":1,"dy":-2},{"dx":2,"dy":-1},{"dx":2,"dy":-2},{"dx":1,"dy":-2},{"dx":1,"dy":-1},{"dx":3,"dy":-1},{"dx":2,"dy":-1},{"dx":1,"dy":0},{"dx":9,"dy":0},{"dx":1,"dy":0},{"dx":5,"dy":3},{"dx":8,"dy":7},{"dx":6,"dy":7},{"dx":1,"dy":1},{"dx":4,"dy":8},{"dx":4,"dy":9},{"dx":0,"dy":0},{"dx":4,"dy":10},{"dx":0,"dy":1},{"dx":0,"dy":2},{"dx":3,"dy":8},{"dx":0,"dy":2},{"dx":0,"dy":2},{"dx":2,"dy":3},{"dx":0,"dy":1},{"dx":0,"dy":0},{"dx":1,"dy":2},{"dx":1,"dy":0},{"dx":2,"dy":0},{"dx":7,"dy":-4},{"dx":1,"dy":-1},{"dx":1,"dy":-2},{"dx":2,"dy":-2},{"dx":2,"dy":-3},{"dx":5,"dy":-7},{"dx":1,"dy":0},{"dx":2,"dy":-11},{"dx":0,"dy":-1},{"dx":1,"dy":-7},{"dx":0,"dy":-10},{"dx":0,"dy":-2},{"dx":-2,"dy":-10},{"dx":-1,"dy":-2},{"dx":-1,"dy":-3},{"dx":-3,"dy":-7},{"dx":-1,"dy":-2},{"dx":-3,"dy":-8},{"dx":-1,"dy":-3},{"dx":-4,"dy":-7},{"dx":-2,"dy":-2},{"dx":-4,"dy":-6},{"dx":-3,"dy":-1},{"dx":-5,"dy":-1},{"dx":-7,"dy":-1},{"dx":-3,"dy":0},{"dx":-8,"dy":1},{"dx":-1,"dy":0},{"dx":-6,"dy":3},{"dx":-5,"dy":4},{"dx":-8,"dy":5},{"dx":-1,"dy":0},{"dx":-2,"dy":2},{"dx":-4,"dy":6},{"dx":-2,"dy":1},{"dx":-2,"dy":1},{"dx":-1,"dy":2},{"dx":-5,"dy":7},{"dx":-1,"dy":1},{"dx":-6,"dy":4},{"dx":-2,"dy":2},{"dx":-7,"dy":2},{"dx":-1,"dy":1},{"dx":-3,"dy":0},{"dx":-3,"dy":0},{"dx":-1,"dy":0},{"dx":-8,"dy":0},{"dx":-1,"dy":-1},{"dx":-2,"dy":-1},{"dx":-3,"dy":-1},{"dx":-3,"dy":-1},{"dx":-3,"dy":0},{"dx":-3,"dy":0},{"dx":-2,"dy":-2},{"dx":-2,"dy":0},{"dx":-3,"dy":-1},{"dx":-2,"dy":-1},{"dx":-1,"dy":-1},{"dx":-3,"dy":-1}],"trial_type":"plugin-moving-dots-2","trial_index":4,"plugin_version":"0.0.1","time_elapsed":42664},{"task":"fixation","rt":1198,"stimulus":"<div style=\"font-size:60px;\">+</div>","response":" ","trial_type":"html-keyboard-response","trial_index":5,"plugin_version":"2.1.0","time_elapsed":43865},{"task":"movingdots","control_change":0,"mouse_data":[{"dx":0,"dy":0},{"dx":0,"dy":0},{"dx":0,"dy":0},{"dx":0,"dy":0},{"dx":0,"dy":0},{"dx":0,"dy":0},{"dx":0,"dy":0},{"dx":0,"dy":0},{"dx":0,"dy":0},{"dx":0,"dy":0},{"dx":0,"dy":0},{"dx":0,"dy":0},{"dx":0,"dy":0},{"dx":0,"dy":0},{"dx":0,"dy":0},{"dx":0,"dy":0},{"dx":0,"dy":0},{"dx":0,"dy":0},{"dx":0,"dy":0},{"dx":0,"dy":0},{"dx":0,"dy":0},{"dx":0,"dy":0},{"dx":0,"dy":0},{"dx":0,"dy":0},{"dx":0,"dy":-1},{"dx":0,"dy":-3},{"dx":-2,"dy":-2},{"dx":0,"dy":-2},{"dx":0,"dy":-2},{"dx":0,"dy":-1},{"dx":0,"dy":-2},{"dx":0,"dy":-2},{"dx":0,"dy":-1},{"dx":1,"dy":-2},{"dx":0,"dy":-2},{"dx":0,"dy":-1},{"dx":1,"dy":-2},{"dx":0,"dy":-1},{"dx":1,"dy":-1},{"dx":0,"dy":-1},{"dx":0,"dy":0},{"dx":1,"dy":-1},{"dx":1,"dy":0},{"dx":0,"dy":-1},{"dx":1,"dy":-1},{"dx":2,"dy":-2},{"dx":1,"dy":-1},{"dx":1,"dy":-1},{"dx":2,"dy":-1},{"dx":1,"dy":-1},{"dx":1,"dy":-1},{"dx":3,"dy":-1},{"dx":2,"dy":-1},{"dx":3,"dy":0},{"dx":2,"dy":0},{"dx":7,"dy":0},{"dx":0,"dy":0},{"dx":2,"dy":0},{"dx":2,"dy":0},{"dx":3,"dy":0},{"dx":3,"dy":0},{"dx":1,"dy":0},{"dx":2,"dy":1},{"dx":3,"dy":0},{"dx":1,"dy":0},{"dx":2,"dy":1},{"dx":1,"dy":0},{"dx":1,"dy":1},{"dx":2,"dy":0},{"dx":3,"dy":0},{"dx":7,"dy":1},{"dx":2,"dy":0},{"dx":8,"dy":-1},{"dx":7,"dy":-2},{"dx":1,"dy":0},{"dx":2,"dy":-1},{"dx":7,"dy":-3},{"dx":0,"dy":0},{"dx":2,"dy":-2},{"dx":1,"dy":-1},{"dx":1,"dy":-1},{"dx":1,"dy":-2},{"dx":1,"dy":-1},{"dx":1,"dy":-2},{"dx":0,"dy":-3},{"dx":0,"dy":-3},{"dx":0,"dy":-2},{"dx":0,"dy":-4},{"dx":-1,"dy":-2},{"dx":-1,"dy":-2},{"dx":-3,"dy":-3},{"dx":-1,"dy":-1},{"dx":-1,"dy":0},{"dx":-2,"dy":-1},{"dx":-3,"dy":-1},{"dx":-3,"dy":-1},{"dx":-5,"dy":-1},{"dx":-2,"dy":0},{"dx":-1,"dy":0},{"dx":-3,"dy":0},{"dx":-2,"dy":0},{"dx":-2,"dy":0},{"dx":-3,"dy":0},{"dx":-7,"dy":1},{"dx":-2,"dy":1},{"dx":-1,"dy":1},{"dx":-8,"dy":2},{"dx":-2,"dy":1},{"dx":-2,"dy":0},{"dx":-7,"dy":3},{"dx":-2,"dy":1},{"dx":-8,"dy":3},{"dx":-2,"dy":1},{"dx":-4,"dy":4},{"dx":-6,"dy":8},{"dx":-6,"dy":7},{"dx":-1,"dy":1},{"dx":-1,"dy":1},{"dx":-1,"dy":2},{"dx":-1,"dy":1},{"dx":-2,"dy":2},{"dx":-1,"dy":2},{"dx":-2,"dy":1},{"dx":-1,"dy":2},{"dx":-2,"dy":1},{"dx":-1,"dy":2},{"dx":-1,"dy":1},{"dx":-6,"dy":6},{"dx":-1,"dy":0},{"dx":-2,"dy":2},{"dx":-3,"dy":1},{"dx":-2,"dy":0},{"dx":-2,"dy":2},{"dx":-3,"dy":0},{"dx":-2,"dy":2},{"dx":-3,"dy":0},{"dx":-3,"dy":2},{"dx":-1,"dy":0},{"dx":-3,"dy":0},{"dx":-2,"dy":1},{"dx":-1,"dy":0},{"dx":-1,"dy":0},{"dx":-2,"dy":0},{"dx":-1,"dy":0},{"dx":0,"dy":0},{"dx":0,"dy":0},{"dx":0,"dy":0},{"dx":0,"dy":0},{"dx":0,"dy":0},{"dx":0,"dy":0},{"dx":0,"dy":0},{"dx":0,"dy":1},{"dx":6,"dy":6},{"dx":2,"dy":1},{"dx":6,"dy":3},{"dx":1,"dy":0},{"dx":2,"dy":2},{"dx":3,"dy":0},{"dx":1,"dy":1},{"dx":3,"dy":1},{"dx":2,"dy":1},{"dx":2,"dy":1},{"dx":2,"dy":0},{"dx":2,"dy":1},{"dx":3,"dy":1},{"dx":2,"dy":0},{"dx":2,"dy":0},{"dx":1,"dy":1},{"dx":2,"dy":0},{"dx":2,"dy":0},{"dx":1,"dy":0},{"dx":2,"dy":0},{"dx":2,"dy":0},{"dx":2,"dy":0},{"dx":1,"dy":0},{"dx":3,"dy":0},{"dx":3,"dy":0},{"dx":6,"dy":1},{"dx":2,"dy":0},{"dx":2,"dy":0},{"dx":2,"dy":0},{"dx":7,"dy":1},{"dx":2,"dy":0},{"dx":1,"dy":0},{"dx":2,"dy":0},{"dx":2,"dy":0},{"dx":3,"dy":0},{"dx":2,"dy":0},{"dx":2,"dy":1},{"dx":1,"dy":0},{"dx":2,"dy":0},{"dx":2,"dy":1},{"dx":2,"dy":1},{"dx":9,"dy":0},{"dx":1,"dy":0},{"dx":8,"dy":0},{"dx":1,"dy":0},{"dx":7,"dy":-1},{"dx":1,"dy":-1},{"dx":2,"dy":0},{"dx":7,"dy":-2},{"dx":1,"dy":-1},{"dx":2,"dy":-1},{"dx":3,"dy":-2},{"dx":1,"dy":-1},{"dx":1,"dy":-1},{"dx":1,"dy":-1},{"dx":1,"dy":-1},{"dx":0,"dy":-2},{"dx":1,"dy":-3},{"dx":0,"dy":-1},{"dx":0,"dy":-2},{"dx":0,"dy":-3},{"dx":0,"dy":-2},{"dx":0,"dy":-1},{"dx":0,"dy":-3},{"dx":-2,"dy":-2},{"dx":-1,"dy":-2},{"dx":-2,"dy":-3},{"dx":-5,"dy":-8},{"dx":0,"dy":-1},{"dx":-3,"dy":-1},{"dx":-2,"dy":-2},{"dx":-5,"dy":-4},{"dx":-8,"dy":-5},{"dx":0,"dy":0},{"dx":-3,"dy":-2},{"dx":-7,"dy":-2},{"dx":-2,"dy":0},{"dx":-7,"dy":-3},{"dx":-2,"dy":-1},{"dx":-2,"dy":0},{"dx":-3,"dy":0},{"dx":-2,"dy":-1},{"dx":-3,"dy":-1},{"dx":-9,"dy":0},{"dx":0,"dy":0},{"dx":-3,"dy":0},{"dx":-7,"dy":0},{"dx":-2,"dy":0},{"dx":-3,"dy":0},{"dx":-1,"dy":0},{"dx":-1,"dy":1},{"dx":0,"dy":0},{"dx":-1,"dy":1},{"dx":-2,"dy":2},{"dx":-1,"dy":2},{"dx":-1,"dy":1},{"dx":-2,"dy":1},{"dx":0,"dy":0},{"dx":0,"dy":1},{"dx":0,"dy":0},{"dx":-1,"dy":1},{"dx":-1,"dy":1},{"dx":-1,"dy":3},{"dx":-1,"dy":3},{"dx":0,"dy":1},{"dx":0,"dy":4},{"dx":0,"dy":0},{"dx":0,"dy":0},{"dx":0,"dy":1},{"dx":0,"dy":0},{"dx":0,"dy":1},{"dx":-2,"dy":10},{"dx":0,"dy":1},{"dx":-1,"dy":8},{"dx":0,"dy":2},{"dx":0,"dy":9},{"dx":0,"dy":2},{"dx":1,"dy":2},{"dx":1,"dy":2},{"dx":0,"dy":2},{"dx":1,"dy":1},{"dx":1,"dy":1},{"dx":2,"dy":2},{"dx":4,"dy":4},{"dx":3,"dy":0},{"dx":7,"dy":2},{"dx":0,"dy":0},{"dx":10,"dy":0},{"dx":7,"dy":0},{"dx":1,"dy":0},{"dx":7,"dy":-1},{"dx":1,"dy":-1},{"dx":1,"dy":0},{"dx":2,"dy":-1},{"dx":1,"dy":0},{"dx":1,"dy":0},{"dx":1,"dy":-1},{"dx":2,"dy":0},{"dx":0,"dy":0},{"dx":0,"dy":0},{"dx":0,"dy":0},{"dx":0,"dy":0},{"dx":0,"dy":0},{"dx":0,"dy":0},{"dx":1,"dy":0},{"dx":0,"dy":3},{"dx":0,"dy":1},{"dx":0,"dy":2},{"dx":0,"dy":2},{"dx":0,"dy":1},{"dx":0,"dy":1},{"dx":0,"dy":1},{"dx":0,"dy":2},{"dx":0,"dy":1},{"dx":-1,"dy":1},{"dx":-1,"dy":1},{"dx":-1,"dy":1},{"dx":-1,"dy":1},{"dx":-1,"dy":1},{"dx":-2,"dy":0},{"dx":-2,"dy":0},{"dx":-3,"dy":0},{"dx":-2,"dy":0},{"dx":-3,"dy":0},{"dx":-7,"dy":-1},{"dx":-1,"dy":-1},{"dx":-3,"dy":-1},{"dx":-2,"dy":-1},{"dx":-2,"dy":-1},{"dx":-3,"dy":-2},{"dx":-1,"dy":-1},{"dx":-2,"dy":-1},{"dx":-2,"dy":-1},{"dx":-2,"dy":-1},{"dx":-1,"dy":-1},{"dx":-3,"dy":0},{"dx":-2,"dy":-1},{"dx":-1,"dy":0},{"dx":-2,"dy":0},{"dx":-1,"dy":0},{"dx":-2,"dy":0},{"dx":-1,"dy":0},{"dx":-2,"dy":0},{"dx":-1,"dy":0},{"dx":-2,"dy":1},{"dx":-2,"dy":0},{"dx":-1,"dy":1},{"dx":-1,"dy":1},{"dx":-2,"dy":1},{"dx":-1,"dy":0},{"dx":-2,"dy":1},{"dx":0,"dy":1},{"dx":-1,"dy":0},{"dx":-1,"dy":2},{"dx":0,"dy":2},{"dx":0,"dy":8},{"dx":0,"dy":1},{"dx":1,"dy":1},{"dx":1,"dy":2},{"dx":1,"dy":1},{"dx":1,"dy":1},{"dx":2,"dy":0},{"dx":7,"dy":0},{"dx":0,"dy":0},{"dx":1,"dy":0},{"dx":2,"dy":0},{"dx":3,"dy":-1},{"dx":8,"dy":-2},{"dx":0,"dy":0},{"dx":8,"dy":-5},{"dx":1,"dy":0},{"dx":7,"dy":-5},{"dx":0,"dy":0},{"dx":2,"dy":-1},{"dx":1,"dy":-1},{"dx":3,"dy":-2},{"dx":2,"dy":-2},{"dx":8,"dy":-5},{"dx":1,"dy":0},{"dx":1,"dy":-2},{"dx":1,"dy":-1},{"dx":2,"dy":-2},{"dx":1,"dy":-1},{"dx":1,"dy":-2},{"dx":1,"dy":-2},{"dx":1,"dy":-2},{"dx":0,"dy":-3},{"dx":0,"dy":-1},{"dx":2,"dy":-2},{"dx":1,"dy":-2},{"dx":2,"dy":-3},{"dx":5,"dy":-5},{"dx":1,"dy":-1},{"dx":9,"dy":-3},{"dx":0,"dy":-1},{"dx":2,"dy":0},{"dx":8,"dy":0},{"dx":6,"dy":3},{"dx":0,"dy":0},{"dx":3,"dy":1},{"dx":6,"dy":4},{"dx":0,"dy":1},{"dx":2,"dy":3},{"dx":1,"dy":2},{"dx":0,"dy":1},{"dx":0,"dy":2},{"dx":1,"dy":0},{"dx":0,"dy":1},{"dx":0,"dy":1},{"dx":-1,"dy":2},{"dx":-6,"dy":6},{"dx":-2,"dy":0},{"dx":-6,"dy":4},{"dx":-8,"dy":2},{"dx":-2,"dy":0},{"dx":-7,"dy":2},{"dx":-2,"dy":0},{"dx":-10,"dy":-2},{"dx":0,"dy":0},{"dx":-3,"dy":-1},{"dx":-6,"dy":-3},{"dx":-1,"dy":-1},{"dx":-2,"dy":0},{"dx":-4,"dy":-2},{"dx":-8,"dy":-3},{"dx":-1,"dy":-1},{"dx":-7,"dy":-3},{"dx":-1,"dy":0},{"dx":-2,"dy":-1},{"dx":-3,"dy":-2},{"dx":-6,"dy":-2},{"dx":-2,"dy":0},{"dx":-7,"dy":-1},{"dx":-9,"dy":0},{"dx":-5,"dy":1},{"dx":-9,"dy":4},{"dx":-1,"dy":0},{"dx":-6,"dy":4},{"dx":-8,"dy":2},{"dx":-2,"dy":2},{"dx":-5,"dy":3},{"dx":-2,"dy":1},{"dx":-2,"dy":1},{"dx":-2,"dy":1},{"dx":-7,"dy":6},{"dx":0,"dy":0},{"dx":-2,"dy":1},{"dx":-2,"dy":2},{"dx":-7,"dy":4},{"dx":-2,"dy":0},{"dx":-6,"dy":3},{"dx":-2,"dy":1},{"dx":-1,"dy":0},{"dx":-9,"dy":3},{"dx":-1,"dy":0},{"dx":-3,"dy":0},{"dx":-2,"dy":0},{"dx":-8,"dy":0},{"dx":-2,"dy":0},{"dx":-1,"dy":0},{"dx":-9,"dy":-2}],"trial_type":"plugin-moving-dots-2","trial_index":6,"plugin_version":"0.0.1","time_elapsed":51380},{"task":"fixation","rt":1299,"stimulus":"<div style=\"font-size:60px;\">+</div>","response":" ","trial_type":"html-keyboard-response","trial_index":7,"plugin_version":"2.1.0","time_elapsed":52682},{"task":"movingdots","control_change":0,"mouse_data":[{"dx":0,"dy":0},{"dx":0,"dy":0},{"dx":0,"dy":0},{"dx":0,"dy":0},{"dx":0,"dy":0},{"dx":0,"dy":0},{"dx":0,"dy":0},{"dx":0,"dy":0},{"dx":0,"dy":0},{"dx":0,"dy":0},{"dx":0,"dy":0},{"dx":0,"dy":0},{"dx":0,"dy":0},{"dx":0,"dy":0},{"dx":0,"dy":0},{"dx":0,"dy":0},{"dx":0,"dy":0},{"dx":0,"dy":0},{"dx":-3,"dy":-7},{"dx":-3,"dy":-2},{"dx":-4,"dy":-6},{"dx":-1,"dy":-1},{"dx":-1,"dy":-2},{"dx":-2,"dy":-3},{"dx":-2,"dy":-2},{"dx":-2,"dy":-2},{"dx":-1,"dy":-2},{"dx":-4,"dy":-5},{"dx":-6,"dy":-5},{"dx":-1,"dy":-1},{"dx":-7,"dy":-6},{"dx":0,"dy":-1},{"dx":-2,"dy":-1},{"dx":-7,"dy":-5},{"dx":-1,"dy":-1},{"dx":-2,"dy":-1},{"dx":-6,"dy":-5},{"dx":-1,"dy":-1},{"dx":-7,"dy":-4},{"dx":-7,"dy":-5},{"dx":-1,"dy":0},{"dx":-6,"dy":-4},{"dx":-9,"dy":-6},{"dx":-6,"dy":-4},{"dx":-7,"dy":-4},{"dx":-2,"dy":-2},{"dx":-3,"dy":-1},{"dx":-2,"dy":-1},{"dx":-8,"dy":-3},{"dx":-2,"dy":0},{"dx":-3,"dy":0},{"dx":-2,"dy":0},{"dx":-3,"dy":0},{"dx":-2,"dy":1},{"dx":-3,"dy":1},{"dx":-2,"dy":1},{"dx":-1,"dy":2},{"dx":-5,"dy":8},{"dx":-1,"dy":2},{"dx":0,"dy":1},{"dx":-1,"dy":3},{"dx":0,"dy":0},{"dx":0,"dy":0},{"dx":0,"dy":0},{"dx":0,"dy":0},{"dx":0,"dy":1},{"dx":0,"dy":8},{"dx":1,"dy":2},{"dx":3,"dy":9},{"dx":1,"dy":1},{"dx":3,"dy":7},{"dx":1,"dy":1},{"dx":8,"dy":4},{"dx":6,"dy":2},{"dx":7,"dy":0},{"dx":10,"dy":-2},{"dx":9,"dy":-2},{"dx":6,"dy":-3},{"dx":7,"dy":-3},{"dx":9,"dy":-4},{"dx":2,"dy":-1},{"dx":17,"dy":-5},{"dx":7,"dy":-3},{"dx":7,"dy":-1},{"dx":12,"dy":-3},{"dx":1,"dy":0},{"dx":7,"dy":-2},{"dx":1,"dy":-1},{"dx":2,"dy":-1},{"dx":2,"dy":0},{"dx":9,"dy":-1},{"dx":1,"dy":0},{"dx":8,"dy":-1},{"dx":7,"dy":0},{"dx":10,"dy":-1},{"dx":0,"dy":0},{"dx":7,"dy":0},{"dx":9,"dy":0},{"dx":2,"dy":0},{"dx":7,"dy":0},{"dx":3,"dy":0},{"dx":7,"dy":2},{"dx":1,"dy":0},{"dx":1,"dy":2},{"dx":1,"dy":0},{"dx":2,"dy":2},{"dx":1,"dy":2},{"dx":0,"dy":3},{"dx":1,"dy":8},{"dx":0,"dy":2},{"dx":0,"dy":2},{"dx":0,"dy":1},{"dx":-1,"dy":1},{"dx":0,"dy":0},{"dx":-1,"dy":2},{"dx":0,"dy":0},{"dx":-1,"dy":1},{"dx":-1,"dy":1},{"dx":-2,"dy":0},{"dx":0,"dy":2},{"dx":-1,"dy":0},{"dx":-1,"dy":0},{"dx":-1,"dy":1},{"dx":-1,"dy":1},{"dx":-2,"dy":2},{"dx":-1,"dy":1},{"dx":-1,"dy":2},{"dx":-2,"dy":1},{"dx":0,"dy":1},{"dx":0,"dy":0},{"dx":-1,"dy":1},{"dx":-1,"dy":1},{"dx":-1,"dy":1},{"dx":-1,"dy":0},{"dx":-1,"dy":1},{"dx":-1,"dy":0},{"dx":-1,"dy":2},{"dx":-1,"dy":0},{"dx":-2,"dy":1},{"dx":-1,"dy":0},{"dx":-1,"dy":1},{"dx":-5,"dy":7},{"dx":-4,"dy":8},{"dx":0,"dy":2},{"dx":0,"dy":12},{"dx":0,"dy":10},{"dx":0,"dy":2},{"dx":0,"dy":8},{"dx":0,"dy":2},{"dx":0,"dy":2},{"dx":0,"dy":3},{"dx":0,"dy":3},{"dx":0,"dy":2},{"dx":0,"dy":2},{"dx":-1,"dy":4},{"dx":0,"dy":3},{"dx":0,"dy":1},{"dx":0,"dy":3},{"dx":0,"dy":1},{"dx":0,"dy":3},{"dx":0,"dy":4},{"dx":0,"dy":2},{"dx":0,"dy":2},{"dx":0,"dy":4},{"dx":0,"dy":2},{"dx":0,"dy":6},{"dx":-1,"dy":3},{"dx":0,"dy":8},{"dx":0,"dy":2},{"dx":0,"dy":4},{"dx":0,"dy":2},{"dx":0,"dy":1},{"dx":0,"dy":3},{"dx":-1,"dy":1},{"dx":0,"dy":2},{"dx":-2,"dy":2},{"dx":-1,"dy":1},{"dx":-2,"dy":1},{"dx":-3,"dy":0},{"dx":-6,"dy":0},{"dx":-2,"dy":0},{"dx":-6,"dy":-7},{"dx":-1,"dy":-1},{"dx":-3,"dy":-8},{"dx":-2,"dy":-2},{"dx":-3,"dy":-8},{"dx":0,"dy":-1},{"dx":-2,"dy":-2},{"dx":-3,"dy":-8},{"dx":-3,"dy":-9},{"dx":0,"dy":-1},{"dx":-3,"dy":-10},{"dx":-4,"dy":-9},{"dx":0,"dy":-1},{"dx":-4,"dy":-8},{"dx":-1,"dy":-2},{"dx":-3,"dy":-8},{"dx":-2,"dy":-3},{"dx":-4,"dy":-7},{"dx":0,"dy":-1},{"dx":-1,"dy":-3},{"dx":0,"dy":-1},{"dx":-1,"dy":-2},{"dx":-1,"dy":-4},{"dx":-2,"dy":-8},{"dx":-1,"dy":-2},{"dx":-2,"dy":-9},{"dx":-3,"dy":-10},{"dx":0,"dy":0},{"dx":-2,"dy":-2},{"dx":0,"dy":-3},{"dx":-4,"dy":-7},{"dx":-1,"dy":-3},{"dx":-1,"dy":-2},{"dx":-4,"dy":-6},{"dx":-2,"dy":-3},{"dx":-5,"dy":-5},{"dx":0,"dy":-2},{"dx":-6,"dy":-9},{"dx":0,"dy":-1},{"dx":-3,"dy":-6},{"dx":-2,"dy":-3},{"dx":-1,"dy":-3},{"dx":-1,"dy":-3},{"dx":0,"dy":-3},{"dx":0,"dy":-1},{"dx":0,"dy":-1},{"dx":0,"dy":-1},{"dx":0,"dy":0},{"dx":0,"dy":0},{"dx":0,"dy":-1},{"dx":1,"dy":-1},{"dx":10,"dy":1},{"dx":6,"dy":4},{"dx":6,"dy":4},{"dx":1,"dy":2},{"dx":10,"dy":14},{"dx":4,"dy":7},{"dx":4,"dy":8},{"dx":4,"dy":7},{"dx":3,"dy":8},{"dx":4,"dy":8},{"dx":1,"dy":1},{"dx":4,"dy":7},{"dx":1,"dy":1},{"dx":2,"dy":2},{"dx":1,"dy":1},{"dx":1,"dy":1},{"dx":2,"dy":2},{"dx":1,"dy":1},{"dx":2,"dy":0},{"dx":7,"dy":6},{"dx":0,"dy":0},{"dx":6,"dy":5},{"dx":1,"dy":1},{"dx":5,"dy":4},{"dx":7,"dy":5},{"dx":9,"dy":6},{"dx":1,"dy":0},{"dx":5,"dy":5},{"dx":6,"dy":6},{"dx":1,"dy":0},{"dx":6,"dy":4},{"dx":8,"dy":5},{"dx":2,"dy":1},{"dx":6,"dy":3},{"dx":0,"dy":1},{"dx":2,"dy":0},{"dx":1,"dy":1},{"dx":9,"dy":1},{"dx":0,"dy":0},{"dx":2,"dy":0},{"dx":3,"dy":-1},{"dx":7,"dy":-2},{"dx":1,"dy":-1},{"dx":3,"dy":-3},{"dx":4,"dy":-4},{"dx":1,"dy":-2},{"dx":7,"dy":-7},{"dx":0,"dy":0},{"dx":1,"dy":-2},{"dx":2,"dy":-1},{"dx":0,"dy":0},{"dx":0,"dy":0},{"dx":1,"dy":0},{"dx":1,"dy":0},{"dx":0,"dy":1},{"dx":1,"dy":9},{"dx":0,"dy":0},{"dx":0,"dy":2},{"dx":0,"dy":3},{"dx":-1,"dy":2},{"dx":0,"dy":1},{"dx":-1,"dy":3},{"dx":0,"dy":1},{"dx":-3,"dy":9},{"dx":-1,"dy":2},{"dx":-1,"dy":3},{"dx":0,"dy":1},{"dx":-3,"dy":11},{"dx":0,"dy":0},{"dx":-1,"dy":2},{"dx":-1,"dy":2},{"dx":-6,"dy":7},{"dx":-1,"dy":0},{"dx":-9,"dy":4},{"dx":-8,"dy":2},{"dx":-10,"dy":2},{"dx":-8,"dy":2},{"dx":-7,"dy":1},{"dx":-8,"dy":1},{"dx":-10,"dy":1},{"dx":-18,"dy":0},{"dx":-8,"dy":-1},{"dx":-7,"dy":0},{"dx":-7,"dy":-1},{"dx":-8,"dy":-1},{"dx":-1,"dy":0},{"dx":-9,"dy":-2},{"dx":-2,"dy":0},{"dx":-8,"dy":-2},{"dx":-7,"dy":-1},{"dx":0,"dy":-2},{"dx":-2,"dy":0},{"dx":-4,"dy":-1},{"dx":0,"dy":0},{"dx":-4,"dy":-2},{"dx":0,"dy":0},{"dx":-9,"dy":-3},{"dx":-6,"dy":-4},{"dx":-8,"dy":-4},{"dx":-6,"dy":-4},{"dx":0,"dy":0},{"dx":-6,"dy":-5},{"dx":-4,"dy":-3},{"dx":-1,"dy":-1},{"dx":-1,"dy":-2},{"dx":-1,"dy":-2},{"dx":0,"dy":-2},{"dx":0,"dy":-3},{"dx":6,"dy":-6},{"dx":7,"dy":-5},{"dx":9,"dy":-4},{"dx":0,"dy":0},{"dx":7,"dy":-1},{"dx":6,"dy":-1},{"dx":7,"dy":0},{"dx":1,"dy":0},{"dx":8,"dy":0},{"dx":0,"dy":0},{"dx":9,"dy":1},{"dx":8,"dy":3},{"dx":0,"dy":0},{"dx":7,"dy":4},{"dx":7,"dy":3},{"dx":9,"dy":5},{"dx":0,"dy":0},{"dx":6,"dy":5},{"dx":2,"dy":0},{"dx":2,"dy":2},{"dx":0,"dy":0},{"dx":2,"dy":2},{"dx":7,"dy":5},{"dx":2,"dy":2},{"dx":6,"dy":6},{"dx":0,"dy":1},{"dx":6,"dy":5},{"dx":0,"dy":1},{"dx":5,"dy":4},{"dx":7,"dy":5},{"dx":0,"dy":0},{"dx":8,"dy":3},{"dx":2,"dy":1},{"dx":7,"dy":3},{"dx":0,"dy":0},{"dx":3,"dy":0},{"dx":1,"dy":1},{"dx":2,"dy":1},{"dx":8,"dy":0},{"dx":1,"dy":0},{"dx":2,"dy":0},{"dx":3,"dy":-1},{"dx":2,"dy":0},{"dx":7,"dy":-3},{"dx":0,"dy":0},{"dx":1,"dy":-2},{"dx":2,"dy":-1},{"dx":1,"dy":-2},{"dx":4,"dy":-9},{"dx":0,"dy":-1},{"dx":1,"dy":-3},{"dx":0,"dy":-4},{"dx":1,"dy":-7},{"dx":0,"dy":-4},{"dx":2,"dy":-7},{"dx":0,"dy":-2},{"dx":0,"dy":-11},{"dx":0,"dy":-2},{"dx":1,"dy":-10},{"dx":0,"dy":-1},{"dx":1,"dy":-9},{"dx":1,"dy":-11},{"dx":0,"dy":0},{"dx":0,"dy":-4},{"dx":0,"dy":-8},{"dx":0,"dy":-2},{"dx":0,"dy":-8},{"dx":0,"dy":-2},{"dx":0,"dy":-11},{"dx":0,"dy":-1},{"dx":0,"dy":-2},{"dx":0,"dy":-9},{"dx":0,"dy":-2},{"dx":-1,"dy":-3},{"dx":-1,"dy":-9},{"dx":-1,"dy":-2},{"dx":-1,"dy":-3},{"dx":-4,"dy":-7},{"dx":-2,"dy":-3},{"dx":-4,"dy":-5},{"dx":-1,"dy":-1},{"dx":-2,"dy":-2},{"dx":-2,"dy":-1},{"dx":-9,"dy":-2},{"dx":-1,"dy":0},{"dx":-2,"dy":0},{"dx":-2,"dy":0},{"dx":-7,"dy":5},{"dx":-1,"dy":1},{"dx":-8,"dy":3},{"dx":-7,"dy":4},{"dx":-2,"dy":1},{"dx":-7,"dy":5},{"dx":-9,"dy":5},{"dx":-1,"dy":0},{"dx":-5,"dy":5},{"dx":-6,"dy":4},{"dx":-1,"dy":1},{"dx":-6,"dy":4},{"dx":-8,"dy":3},{"dx":-1,"dy":0},{"dx":-8,"dy":3},{"dx":-7,"dy":2},{"dx":-7,"dy":3},{"dx":-1,"dy":0},{"dx":-9,"dy":3},{"dx":-7,"dy":3},{"dx":-7,"dy":2},{"dx":-2,"dy":1},{"dx":-3,"dy":1},{"dx":-2,"dy":0},{"dx":-4,"dy":2},{"dx":-2,"dy":0}],"trial_type":"plugin-moving-dots-2","trial_index":8,"plugin_version":"0.0.1","time_elapsed":60197},{"task":"fixation","rt":1747,"stimulus":"<div style=\"font-size:60px;\">+</div>","response":" ","trial_type":"html-keyboard-response","trial_index":9,"plugin_version":"2.1.0","time_elapsed":61945},{"task":"movingdots","control_change":0,"mouse_data":[{"dx":0,"dy":0},{"dx":0,"dy":0},{"dx":0,"dy":0},{"dx":0,"dy":0},{"dx":0,"dy":0},{"dx":0,"dy":0},{"dx":0,"dy":0},{"dx":0,"dy":0},{"dx":0,"dy":0},{"dx":0,"dy":0},{"dx":0,"dy":0},{"dx":0,"dy":0},{"dx":0,"dy":0},{"dx":0,"dy":0},{"dx":0,"dy":0},{"dx":0,"dy":0},{"dx":0,"dy":0},{"dx":0,"dy":0},{"dx":7,"dy":0},{"dx":8,"dy":-2},{"dx":8,"dy":-4},{"dx":7,"dy":-4},{"dx":6,"dy":-3},{"dx":13,"dy":-5},{"dx":1,"dy":-1},{"dx":8,"dy":-2},{"dx":6,"dy":-2},{"dx":2,"dy":-1},{"dx":1,"dy":-1},{"dx":1,"dy":0},{"dx":1,"dy":0},{"dx":0,"dy":0},{"dx":1,"dy":-2},{"dx":1,"dy":-2},{"dx":0,"dy":-2},{"dx":-8,"dy":-8},{"dx":0,"dy":0},{"dx":-7,"dy":-3},{"dx":-16,"dy":-1},{"dx":-8,"dy":0},{"dx":-1,"dy":0},{"dx":-9,"dy":0},{"dx":-7,"dy":1},{"dx":-1,"dy":0},{"dx":-8,"dy":2},{"dx":-1,"dy":1},{"dx":-2,"dy":0},{"dx":-2,"dy":0},{"dx":-1,"dy":1},{"dx":-2,"dy":1},{"dx":-6,"dy":6},{"dx":-1,"dy":0},{"dx":-1,"dy":0},{"dx":-6,"dy":4},{"dx":-2,"dy":1},{"dx":-1,"dy":0},{"dx":-1,"dy":1},{"dx":0,"dy":0},{"dx":0,"dy":0},{"dx":0,"dy":1},{"dx":0,"dy":2},{"dx":6,"dy":6},{"dx":14,"dy":9},{"dx":8,"dy":4},{"dx":8,"dy":2},{"dx":8,"dy":4},{"dx":1,"dy":0},{"dx":6,"dy":2},{"dx":9,"dy":4},{"dx":7,"dy":4},{"dx":9,"dy":3},{"dx":7,"dy":1},{"dx":1,"dy":1},{"dx":7,"dy":2},{"dx":1,"dy":1},{"dx":8,"dy":3},{"dx":0,"dy":0},{"dx":2,"dy":1},{"dx":1,"dy":0},{"dx":1,"dy":0},{"dx":0,"dy":1},{"dx":0,"dy":0},{"dx":0,"dy":0},{"dx":1,"dy":1},{"dx":2,"dy":8},{"dx":0,"dy":2},{"dx":0,"dy":8},{"dx":0,"dy":10},{"dx":-2,"dy":7},{"dx":0,"dy":2},{"dx":-2,"dy":8},{"dx":-1,"dy":1},{"dx":-6,"dy":8},{"dx":0,"dy":0},{"dx":-2,"dy":1},{"dx":-5,"dy":4},{"dx":-7,"dy":3},{"dx":-8,"dy":3},{"dx":-1,"dy":0},{"dx":-17,"dy":5},{"dx":-9,"dy":1},{"dx":-8,"dy":0},{"dx":-9,"dy":0},{"dx":-8,"dy":0},{"dx":-6,"dy":-2},{"dx":-14,"dy":-1},{"dx":-7,"dy":-1},{"dx":-2,"dy":0},{"dx":-15,"dy":-3},{"dx":-2,"dy":-1},{"dx":-7,"dy":-1},{"dx":-3,"dy":-1},{"dx":-7,"dy":-2},{"dx":-2,"dy":-1},{"dx":-3,"dy":-2},{"dx":-1,"dy":-1},{"dx":-2,"dy":-2},{"dx":-7,"dy":-7},{"dx":0,"dy":-1},{"dx":-1,"dy":-2},{"dx":-2,"dy":-10},{"dx":-2,"dy":-9},{"dx":-3,"dy":-9},{"dx":-3,"dy":-11},{"dx":-3,"dy":-9},{"dx":-3,"dy":-9},{"dx":-2,"dy":-10},{"dx":-3,"dy":-9},{"dx":0,"dy":-1},{"dx":-3,"dy":-11},{"dx":-1,"dy":-8},{"dx":-3,"dy":-10},{"dx":-1,"dy":-2},{"dx":0,"dy":-2},{"dx":-1,"dy":-3},{"dx":-4,"dy":-10},{"dx":0,"dy":-1},{"dx":-2,"dy":-2},{"dx":-1,"dy":-5},{"dx":-1,"dy":-2},{"dx":-2,"dy":-3},{"dx":-1,"dy":-3},{"dx":0,"dy":-1},{"dx":-2,"dy":-2},{"dx":-1,"dy":-4},{"dx":-3,"dy":-8},{"dx":0,"dy":-2},{"dx":-3,"dy":-10},{"dx":-1,"dy":-2},{"dx":-3,"dy":-8},{"dx":-1,"dy":-3},{"dx":0,"dy":-2},{"dx":-2,"dy":-3},{"dx":-2,"dy":-9},{"dx":0,"dy":-2},{"dx":0,"dy":-3},{"dx":-1,"dy":-9},{"dx":0,"dy":-11},{"dx":0,"dy":-1},{"dx":6,"dy":-17},{"dx":3,"dy":-7},{"dx":1,"dy":-1},{"dx":12,"dy":-15},{"dx":7,"dy":-7},{"dx":6,"dy":-5},{"dx":5,"dy":-4},{"dx":9,"dy":-3},{"dx":0,"dy":-1},{"dx":9,"dy":-3},{"dx":8,"dy":-2},{"dx":7,"dy":-3},{"dx":11,"dy":-2},{"dx":9,"dy":0},{"dx":8,"dy":0},{"dx":9,"dy":3},{"dx":9,"dy":3},{"dx":10,"dy":4},{"dx":0,"dy":0},{"dx":6,"dy":6},{"dx":5,"dy":5},{"dx":4,"dy":7},{"dx":4,"dy":8},{"dx":1,"dy":1},{"dx":4,"dy":8},{"dx":3,"dy":11},{"dx":0,"dy":1},{"dx":0,"dy":10},{"dx":1,"dy":9},{"dx":0,"dy":1},{"dx":0,"dy":7},{"dx":-1,"dy":13},{"dx":-3,"dy":8},{"dx":-3,"dy":8},{"dx":-4,"dy":10},{"dx":-1,"dy":0},{"dx":-2,"dy":9},{"dx":-6,"dy":15},{"dx":-5,"dy":7},{"dx":-5,"dy":7},{"dx":-6,"dy":8},{"dx":-6,"dy":5},{"dx":-4,"dy":6},{"dx":-11,"dy":10},{"dx":-5,"dy":6},{"dx":-6,"dy":6},{"dx":-5,"dy":5},{"dx":-6,"dy":6},{"dx":-1,"dy":1},{"dx":-6,"dy":7},{"dx":-1,"dy":2},{"dx":-5,"dy":7},{"dx":-5,"dy":9},{"dx":-5,"dy":8},{"dx":0,"dy":1},{"dx":-1,"dy":2},{"dx":-2,"dy":8},{"dx":-1,"dy":2},{"dx":0,"dy":3},{"dx":0,"dy":1},{"dx":0,"dy":2},{"dx":0,"dy":3},{"dx":0,"dy":3},{"dx":1,"dy":2},{"dx":4,"dy":6},{"dx":1,"dy":1},{"dx":7,"dy":7},{"dx":1,"dy":1},{"dx":6,"dy":4},{"dx":7,"dy":3},{"dx":10,"dy":2},{"dx":7,"dy":0},{"dx":2,"dy":0},{"dx":7,"dy":1},{"dx":1,"dy":0},{"dx":8,"dy":0},{"dx":0,"dy":0},{"dx":10,"dy":0},{"dx":9,"dy":0},{"dx":15,"dy":-1},{"dx":12,"dy":-1},{"dx":12,"dy":0},{"dx":10,"dy":1},{"dx":8,"dy":0},{"dx":9,"dy":0},{"dx":8,"dy":1},{"dx":8,"dy":1},{"dx":9,"dy":1},{"dx":16,"dy":0},{"dx":1,"dy":0},{"dx":7,"dy":0},{"dx":15,"dy":-1},{"dx":8,"dy":0},{"dx":10,"dy":0},{"dx":9,"dy":0},{"dx":6,"dy":1},{"dx":9,"dy":2},{"dx":7,"dy":3},{"dx":2,"dy":1},{"dx":6,"dy":2},{"dx":7,"dy":4},{"dx":7,"dy":6},{"dx":1,"dy":0},{"dx":5,"dy":6},{"dx":6,"dy":5},{"dx":1,"dy":1},{"dx":6,"dy":4},{"dx":0,"dy":1},{"dx":2,"dy":0},{"dx":7,"dy":4},{"dx":2,"dy":1},{"dx":6,"dy":2},{"dx":10,"dy":1},{"dx":0,"dy":0},{"dx":8,"dy":0},{"dx":10,"dy":-3},{"dx":8,"dy":-2},{"dx":1,"dy":0},{"dx":8,"dy":-3},{"dx":8,"dy":-2},{"dx":0,"dy":0},{"dx":9,"dy":-3},{"dx":8,"dy":-3},{"dx":0,"dy":-1},{"dx":8,"dy":-4},{"dx":2,"dy":-1},{"dx":4,"dy":-5},{"dx":7,"dy":-5},{"dx":7,"dy":-7},{"dx":6,"dy":-7},{"dx":0,"dy":-1},{"dx":5,"dy":-8},{"dx":1,"dy":-2},{"dx":1,"dy":-2},{"dx":2,"dy":-9},{"dx":0,"dy":-2},{"dx":0,"dy":-11},{"dx":0,"dy":-1},{"dx":-3,"dy":-10},{"dx":-1,"dy":-2},{"dx":-10,"dy":-13},{"dx":0,"dy":-1},{"dx":-8,"dy":-7},{"dx":-11,"dy":-9},{"dx":-8,"dy":-5},{"dx":-7,"dy":-3},{"dx":-9,"dy":-3},{"dx":-9,"dy":-2},{"dx":-8,"dy":-3},{"dx":-20,"dy":-7},{"dx":-7,"dy":-4},{"dx":-2,"dy":0},{"dx":-16,"dy":-7},{"dx":-2,"dy":-1},{"dx":-9,"dy":-3},{"dx":-8,"dy":-2},{"dx":-8,"dy":0},{"dx":-8,"dy":0},{"dx":-8,"dy":3},{"dx":-4,"dy":4},{"dx":-6,"dy":6},{"dx":-4,"dy":8},{"dx":-1,"dy":1},{"dx":-4,"dy":5},{"dx":-8,"dy":6},{"dx":-4,"dy":5},{"dx":-7,"dy":5},{"dx":-11,"dy":11},{"dx":-7,"dy":4},{"dx":-6,"dy":4},{"dx":-8,"dy":6},{"dx":-1,"dy":0},{"dx":-6,"dy":5},{"dx":-7,"dy":6},{"dx":-7,"dy":5},{"dx":-9,"dy":5},{"dx":-7,"dy":4},{"dx":-6,"dy":3},{"dx":-7,"dy":3},{"dx":-10,"dy":3},{"dx":-2,"dy":0},{"dx":-8,"dy":1},{"dx":-1,"dy":0},{"dx":-8,"dy":2},{"dx":-8,"dy":0},{"dx":-7,"dy":0},{"dx":-9,"dy":0},{"dx":-9,"dy":0},{"dx":-6,"dy":-1},{"dx":-8,"dy":0},{"dx":-10,"dy":-2},{"dx":-6,"dy":-3},{"dx":-13,"dy":-7},{"dx":-6,"dy":-4},{"dx":-1,"dy":-1},{"dx":-7,"dy":-7},{"dx":-7,"dy":-6},{"dx":-5,"dy":-6},{"dx":-1,"dy":-2},{"dx":-3,"dy":-8},{"dx":0,"dy":-2},{"dx":-1,"dy":-4},{"dx":0,"dy":-9},{"dx":0,"dy":-2},{"dx":1,"dy":-6},{"dx":0,"dy":-2},{"dx":5,"dy":-7},{"dx":5,"dy":-7},{"dx":0,"dy":0},{"dx":1,"dy":-2},{"dx":1,"dy":-2},{"dx":2,"dy":-1},{"dx":8,"dy":-3},{"dx":8,"dy":-1},{"dx":8,"dy":0},{"dx":7,"dy":4},{"dx":18,"dy":14},{"dx":5,"dy":9},{"dx":5,"dy":5},{"dx":6,"dy":8},{"dx":6,"dy":6},{"dx":5,"dy":6},{"dx":9,"dy":8},{"dx":7,"dy":5},{"dx":6,"dy":7},{"dx":6,"dy":6},{"dx":7,"dy":8},{"dx":1,"dy":1},{"dx":6,"dy":4},{"dx":2,"dy":1},{"dx":6,"dy":2},{"dx":3,"dy":1},{"dx":6,"dy":3},{"dx":2,"dy":0},{"dx":8,"dy":0},{"dx":8,"dy":0},{"dx":1,"dy":0},{"dx":7,"dy":-3},{"dx":6,"dy":-2},{"dx":1,"dy":-2},{"dx":3,"dy":-3},{"dx":4,"dy":-6},{"dx":0,"dy":-3},{"dx":1,"dy":-11},{"dx":-2,"dy":-8},{"dx":-5,"dy":-11},{"dx":-3,"dy":-8},{"dx":-4,"dy":-10},{"dx":-1,"dy":0},{"dx":-5,"dy":-7},{"dx":-4,"dy":-7},{"dx":-1,"dy":0},{"dx":-8,"dy":-7},{"dx":-2,"dy":0},{"dx":-6,"dy":-2},{"dx":-8,"dy":-1},{"dx":-9,"dy":0},{"dx":-1,"dy":0},{"dx":-7,"dy":2},{"dx":-7,"dy":5},{"dx":-6,"dy":8},{"dx":-4,"dy":7},{"dx":-4,"dy":4},{"dx":-3,"dy":8},{"dx":-6,"dy":8},{"dx":-5,"dy":8},{"dx":-1,"dy":0},{"dx":-5,"dy":6},{"dx":-2,"dy":2},{"dx":-1,"dy":2},{"dx":-6,"dy":5},{"dx":-2,"dy":1},{"dx":-5,"dy":4},{"dx":0,"dy":0},{"dx":-7,"dy":4},{"dx":-2,"dy":1},{"dx":-7,"dy":2},{"dx":-2,"dy":0},{"dx":-7,"dy":0},{"dx":-1,"dy":-1},{"dx":-8,"dy":-2},{"dx":-6,"dy":-5},{"dx":-1,"dy":-1},{"dx":-6,"dy":-5},{"dx":-5,"dy":-6},{"dx":-5,"dy":-6},{"dx":-5,"dy":-9},{"dx":-1,"dy":-2},{"dx":-3,"dy":-8},{"dx":-1,"dy":-8},{"dx":0,"dy":-1},{"dx":0,"dy":-3},{"dx":-1,"dy":-8}],"trial_type":"plugin-moving-dots-2","trial_index":10,"plugin_version":"0.0.1","time_elapsed":69448},{"task":"fixation","rt":1216,"stimulus":"<div style=\"font-size:60px;\">+</div>","response":" ","trial_type":"html-keyboard-response","trial_index":11,"plugin_version":"2.1.0","time_elapsed":70666},{"task":"movingdots","control_change":0,"mouse_data":[{"dx":0,"dy":0},{"dx":0,"dy":0},{"dx":0,"dy":0},{"dx":0,"dy":0},{"dx":0,"dy":0},{"dx":0,"dy":0},{"dx":0,"dy":0},{"dx":0,"dy":0},{"dx":0,"dy":0},{"dx":0,"dy":0},{"dx":0,"dy":0},{"dx":0,"dy":0},{"dx":0,"dy":0},{"dx":0,"dy":0},{"dx":0,"dy":0},{"dx":0,"dy":0},{"dx":0,"dy":0},{"dx":0,"dy":0},{"dx":0,"dy":0},{"dx":0,"dy":0},{"dx":0,"dy":0},{"dx":0,"dy":0},{"dx":0,"dy":0},{"dx":0,"dy":0},{"dx":8,"dy":0},{"dx":11,"dy":0},{"dx":8,"dy":0},{"dx":8,"dy":1},{"dx":8,"dy":2},{"dx":1,"dy":0},{"dx":2,"dy":1},{"dx":2,"dy":0},{"dx":1,"dy":0},{"dx":2,"dy":1},{"dx":2,"dy":1},{"dx":3,"dy":0},{"dx":5,"dy":2},{"dx":1,"dy":1},{"dx":2,"dy":0},{"dx":1,"dy":0},{"dx":2,"dy":1},{"dx":3,"dy":1},{"dx":1,"dy":1},{"dx":7,"dy":5},{"dx":1,"dy":0},{"dx":4,"dy":8},{"dx":1,"dy":0},{"dx":2,"dy":8},{"dx":1,"dy":9},{"dx":-1,"dy":10},{"dx":-5,"dy":10},{"dx":-1,"dy":2},{"dx":-6,"dy":6},{"dx":-6,"dy":4},{"dx":-6,"dy":3},{"dx":-2,"dy":0},{"dx":-6,"dy":4},{"dx":-2,"dy":0},{"dx":-8,"dy":2},{"dx":-10,"dy":3},{"dx":-8,"dy":1},{"dx":-6,"dy":0},{"dx":-9,"dy":0},{"dx":-9,"dy":-2},{"dx":-9,"dy":-3},{"dx":-7,"dy":-3},{"dx":-7,"dy":-5},{"dx":-7,"dy":-5},{"dx":-8,"dy":-4},{"dx":-6,"dy":-4},{"dx":-5,"dy":-4},{"dx":-13,"dy":-10},{"dx":-1,"dy":-1},{"dx":-6,"dy":-7},{"dx":-7,"dy":-7},{"dx":0,"dy":-1},{"dx":-1,"dy":-1},{"dx":-2,"dy":-4},{"dx":-1,"dy":-2},{"dx":-1,"dy":-3},{"dx":-1,"dy":-5},{"dx":0,"dy":-2},{"dx":0,"dy":-4},{"dx":0,"dy":-8},{"dx":0,"dy":-2},{"dx":0,"dy":-1},{"dx":1,"dy":-10},{"dx":0,"dy":-2},{"dx":2,"dy":-2},{"dx":3,"dy":-7},{"dx":1,"dy":-1},{"dx":7,"dy":-6},{"dx":8,"dy":-4},{"dx":9,"dy":-3},{"dx":0,"dy":0},{"dx":8,"dy":0},{"dx":1,"dy":0},{"dx":8,"dy":1},{"dx":6,"dy":3},{"dx":1,"dy":0},{"dx":6,"dy":4},{"dx":5,"dy":5},{"dx":1,"dy":0},{"dx":5,"dy":5},{"dx":6,"dy":5},{"dx":4,"dy":6},{"dx":2,"dy":0},{"dx":5,"dy":6},{"dx":6,"dy":4},{"dx":6,"dy":8},{"dx":0,"dy":1},{"dx":2,"dy":2},{"dx":1,"dy":1},{"dx":0,"dy":0},{"dx":1,"dy":1},{"dx":2,"dy":1},{"dx":5,"dy":7},{"dx":1,"dy":0},{"dx":1,"dy":1},{"dx":7,"dy":6},{"dx":1,"dy":0},{"dx":7,"dy":2},{"dx":2,"dy":1},{"dx":9,"dy":1},{"dx":7,"dy":1},{"dx":7,"dy":0},{"dx":8,"dy":0},{"dx":0,"dy":0},{"dx":2,"dy":0},{"dx":6,"dy":-2},{"dx":2,"dy":-1},{"dx":1,"dy":-1},{"dx":2,"dy":-2},{"dx":1,"dy":-2},{"dx":5,"dy":-8},{"dx":0,"dy":-3},{"dx":0,"dy":-2},{"dx":2,"dy":-9},{"dx":0,"dy":-2},{"dx":0,"dy":-3},{"dx":0,"dy":-2},{"dx":-3,"dy":-8},{"dx":-4,"dy":-9},{"dx":-1,"dy":0},{"dx":-6,"dy":-8},{"dx":-2,"dy":-1},{"dx":-6,"dy":-5},{"dx":-9,"dy":-5},{"dx":0,"dy":-1},{"dx":-8,"dy":-2},{"dx":-2,"dy":-1},{"dx":-7,"dy":0},{"dx":-2,"dy":0},{"dx":-7,"dy":2},{"dx":-6,"dy":3},{"dx":-1,"dy":1},{"dx":-6,"dy":5},{"dx":-6,"dy":6},{"dx":-2,"dy":0},{"dx":-5,"dy":8},{"dx":-4,"dy":10},{"dx":-4,"dy":8},{"dx":-4,"dy":8},{"dx":-4,"dy":10},{"dx":-2,"dy":8},{"dx":-1,"dy":1},{"dx":-1,"dy":2},{"dx":0,"dy":2},{"dx":-4,"dy":9},{"dx":-2,"dy":1},{"dx":-3,"dy":6},{"dx":-4,"dy":6},{"dx":-1,"dy":2},{"dx":-2,"dy":1},{"dx":0,"dy":2},{"dx":-1,"dy":3},{"dx":0,"dy":1},{"dx":-2,"dy":2},{"dx":-2,"dy":3},{"dx":-1,"dy":2},{"dx":-1,"dy":2},{"dx":-2,"dy":2},{"dx":-1,"dy":2},{"dx":-2,"dy":3},{"dx":-1,"dy":1},{"dx":-5,"dy":4},{"dx":-2,"dy":1},{"dx":-9,"dy":2},{"dx":0,"dy":0},{"dx":-6,"dy":-1},{"dx":-15,"dy":-10},{"dx":-6,"dy":-5},{"dx":0,"dy":0},{"dx":-6,"dy":-6},{"dx":-1,"dy":-2},{"dx":-3,"dy":-8},{"dx":-2,"dy":-10},{"dx":0,"dy":-1},{"dx":0,"dy":-10},{"dx":0,"dy":-2},{"dx":0,"dy":-7},{"dx":0,"dy":-11},{"dx":0,"dy":-10},{"dx":0,"dy":-1},{"dx":0,"dy":-2},{"dx":1,"dy":-4},{"dx":0,"dy":-2},{"dx":0,"dy":-1},{"dx":2,"dy":-2},{"dx":5,"dy":-4},{"dx":1,"dy":-1},{"dx":2,"dy":-1},{"dx":7,"dy":-1},{"dx":7,"dy":0},{"dx":9,"dy":0},{"dx":7,"dy":2},{"dx":8,"dy":3},{"dx":7,"dy":4},{"dx":9,"dy":5},{"dx":8,"dy":4},{"dx":7,"dy":5},{"dx":11,"dy":3},{"dx":7,"dy":2},{"dx":8,"dy":4},{"dx":6,"dy":3},{"dx":8,"dy":3},{"dx":2,"dy":2},{"dx":6,"dy":3},{"dx":1,"dy":1},{"dx":7,"dy":3},{"dx":1,"dy":0},{"dx":2,"dy":0},{"dx":3,"dy":1},{"dx":1,"dy":0},{"dx":8,"dy":0},{"dx":1,"dy":0},{"dx":5,"dy":-5},{"dx":0,"dy":0},{"dx":2,"dy":-2},{"dx":3,"dy":-6},{"dx":1,"dy":-2},{"dx":2,"dy":-9},{"dx":0,"dy":-3},{"dx":0,"dy":-7},{"dx":0,"dy":-2},{"dx":0,"dy":-11},{"dx":0,"dy":-1},{"dx":-2,"dy":-10},{"dx":0,"dy":-1},{"dx":-1,"dy":-3},{"dx":-2,"dy":-3},{"dx":-2,"dy":-1},{"dx":-1,"dy":-2},{"dx":-3,"dy":-2},{"dx":-2,"dy":-1},{"dx":-8,"dy":-1},{"dx":-7,"dy":3},{"dx":-1,"dy":0},{"dx":-5,"dy":6},{"dx":-10,"dy":16},{"dx":-1,"dy":1},{"dx":-3,"dy":9},{"dx":-2,"dy":2},{"dx":-2,"dy":9},{"dx":-4,"dy":7},{"dx":-5,"dy":9},{"dx":-4,"dy":5},{"dx":-5,"dy":8},{"dx":-1,"dy":1},{"dx":-6,"dy":6},{"dx":-1,"dy":2},{"dx":-2,"dy":1},{"dx":-6,"dy":5},{"dx":-1,"dy":0},{"dx":-1,"dy":1},{"dx":-4,"dy":2},{"dx":-6,"dy":2},{"dx":-3,"dy":0},{"dx":-8,"dy":0},{"dx":-9,"dy":0},{"dx":-7,"dy":-4},{"dx":-13,"dy":-8},{"dx":-2,"dy":0},{"dx":-5,"dy":-5},{"dx":-3,"dy":-2},{"dx":-2,"dy":-2},{"dx":-1,"dy":-2},{"dx":-2,"dy":-4},{"dx":-1,"dy":-2},{"dx":-1,"dy":-3},{"dx":0,"dy":-9},{"dx":-2,"dy":-2},{"dx":0,"dy":-2},{"dx":0,"dy":-3},{"dx":1,"dy":-3},{"dx":0,"dy":-3},{"dx":0,"dy":-3},{"dx":0,"dy":-2},{"dx":1,"dy":-2},{"dx":0,"dy":-1},{"dx":0,"dy":-1},{"dx":1,"dy":-1},{"dx":6,"dy":-5},{"dx":8,"dy":-4},{"dx":7,"dy":-3},{"dx":2,"dy":0},{"dx":1,"dy":-1},{"dx":1,"dy":-1},{"dx":6,"dy":-1},{"dx":9,"dy":0},{"dx":1,"dy":1},{"dx":8,"dy":3},{"dx":6,"dy":4},{"dx":0,"dy":0},{"dx":2,"dy":2},{"dx":4,"dy":4},{"dx":1,"dy":2},{"dx":7,"dy":5},{"dx":7,"dy":7},{"dx":6,"dy":4},{"dx":6,"dy":5},{"dx":5,"dy":4},{"dx":1,"dy":1},{"dx":3,"dy":2},{"dx":1,"dy":1},{"dx":2,"dy":2},{"dx":2,"dy":1},{"dx":0,"dy":2},{"dx":1,"dy":1},{"dx":1,"dy":1},{"dx":0,"dy":1},{"dx":0,"dy":0},{"dx":1,"dy":0},{"dx":0,"dy":0},{"dx":1,"dy":0},{"dx":1,"dy":1},{"dx":1,"dy":0},{"dx":2,"dy":0},{"dx":3,"dy":-1},{"dx":1,"dy":-1},{"dx":2,"dy":-2},{"dx":2,"dy":-2},{"dx":2,"dy":-1},{"dx":5,"dy":-4},{"dx":2,"dy":-2},{"dx":1,"dy":-1},{"dx":1,"dy":-2},{"dx":4,"dy":-6},{"dx":1,"dy":-3},{"dx":1,"dy":-8},{"dx":1,"dy":-11},{"dx":0,"dy":0},{"dx":0,"dy":-3},{"dx":0,"dy":-2},{"dx":0,"dy":-2},{"dx":-1,"dy":-4},{"dx":-4,"dy":-7},{"dx":-2,"dy":-1},{"dx":-7,"dy":-4},{"dx":-8,"dy":-2},{"dx":-6,"dy":0},{"dx":-2,"dy":0},{"dx":-9,"dy":3},{"dx":-7,"dy":7},{"dx":-6,"dy":6},{"dx":-6,"dy":5},{"dx":-6,"dy":7},{"dx":-6,"dy":8},{"dx":-1,"dy":1},{"dx":-4,"dy":6},{"dx":-1,"dy":1},{"dx":-2,"dy":3},{"dx":-4,"dy":7},{"dx":-1,"dy":1},{"dx":-4,"dy":4},{"dx":-1,"dy":1},{"dx":-1,"dy":2},{"dx":-1,"dy":1},{"dx":-3,"dy":1},{"dx":-1,"dy":2},{"dx":-2,"dy":1},{"dx":-9,"dy":2},{"dx":-2,"dy":0},{"dx":-8,"dy":-1},{"dx":-2,"dy":0},{"dx":-6,"dy":-3},{"dx":-2,"dy":-1},{"dx":-6,"dy":-6},{"dx":-1,"dy":-1},{"dx":-5,"dy":-3},{"dx":-2,"dy":-3},{"dx":-3,"dy":-8},{"dx":0,"dy":-2},{"dx":-1,"dy":-10},{"dx":0,"dy":-3},{"dx":0,"dy":-2},{"dx":3,"dy":-8},{"dx":0,"dy":-1},{"dx":1,"dy":-2},{"dx":2,"dy":-2},{"dx":7,"dy":-5},{"dx":0,"dy":0},{"dx":7,"dy":-3},{"dx":9,"dy":-2},{"dx":8,"dy":-1},{"dx":7,"dy":0},{"dx":1,"dy":0},{"dx":8,"dy":1},{"dx":8,"dy":4},{"dx":9,"dy":3},{"dx":9,"dy":3},{"dx":2,"dy":1},{"dx":2,"dy":0},{"dx":3,"dy":0},{"dx":6,"dy":3},{"dx":2,"dy":0},{"dx":6,"dy":3},{"dx":3,"dy":1},{"dx":6,"dy":3},{"dx":0,"dy":0},{"dx":2,"dy":2},{"dx":1,"dy":1},{"dx":1,"dy":0},{"dx":2,"dy":3},{"dx":1,"dy":1},{"dx":2,"dy":2},{"dx":2,"dy":2},{"dx":2,"dy":2},{"dx":6,"dy":5},{"dx":0,"dy":1},{"dx":1,"dy":1},{"dx":6,"dy":7},{"dx":2,"dy":0},{"dx":1,"dy":1},{"dx":7,"dy":5},{"dx":0,"dy":0},{"dx":6,"dy":5},{"dx":0,"dy":0},{"dx":7,"dy":3},{"dx":7,"dy":2},{"dx":1,"dy":0},{"dx":9,"dy":4},{"dx":1,"dy":1},{"dx":6,"dy":3},{"dx":7,"dy":5},{"dx":1,"dy":1},{"dx":6,"dy":6},{"dx":3,"dy":9},{"dx":0,"dy":2},{"dx":0,"dy":9},{"dx":-1,"dy":1},{"dx":0,"dy":2},{"dx":-2,"dy":1}],"trial_type":"plugin-moving-dots-2","trial_index":12,"plugin_version":"0.0.1","time_elapsed":78182},{"task":"fixation","rt":1329,"stimulus":"<div style=\"font-size:60px;\">+</div>","response":" ","trial_type":"html-keyboard-response","trial_index":13,"plugin_version":"2.1.0","time_elapsed":79513},{"task":"movingdots","control_change":0,"mouse_data":[{"dx":0,"dy":0},{"dx":0,"dy":0},{"dx":0,"dy":0},{"dx":0,"dy":0},{"dx":0,"dy":0},{"dx":0,"dy":0},{"dx":0,"dy":0},{"dx":0,"dy":0},{"dx":0,"dy":0},{"dx":0,"dy":0},{"dx":0,"dy":0},{"dx":0,"dy":0},{"dx":0,"dy":0},{"dx":0,"dy":0},{"dx":0,"dy":0},{"dx":0,"dy":0},{"dx":0,"dy":0},{"dx":0,"dy":0},{"dx":0,"dy":0},{"dx":0,"dy":0},{"dx":0,"dy":0},{"dx":-2,"dy":-7},{"dx":0,"dy":-1},{"dx":-2,"dy":-4},{"dx":-1,"dy":-2},{"dx":-1,"dy":-3},{"dx":0,"dy":-3},{"dx":0,"dy":0},{"dx":0,"dy":-2},{"dx":0,"dy":-1},{"dx":6,"dy":-5},{"dx":1,"dy":-1},{"dx":16,"dy":-4},{"dx":7,"dy":-1},{"dx":2,"dy":0},{"dx":7,"dy":0},{"dx":8,"dy":1},{"dx":7,"dy":4},{"dx":6,"dy":6},{"dx":0,"dy":0},{"dx":4,"dy":7},{"dx":2,"dy":10},{"dx":0,"dy":1},{"dx":1,"dy":8},{"dx":-1,"dy":8},{"dx":-3,"dy":7},{"dx":0,"dy":1},{"dx":-7,"dy":8},{"dx":-2,"dy":1},{"dx":-6,"dy":3},{"dx":-21,"dy":2},{"dx":-13,"dy":-1},{"dx":-10,"dy":-2},{"dx":-7,"dy":-4},{"dx":-7,"dy":-7},{"dx":-4,"dy":-8},{"dx":-2,"dy":-8},{"dx":-2,"dy":-10},{"dx":-1,"dy":-8},{"dx":-2,"dy":-10},{"dx":0,"dy":-1},{"dx":0,"dy":-3},{"dx":0,"dy":-2},{"dx":0,"dy":-3},{"dx":2,"dy":-9},{"dx":5,"dy":-9},{"dx":1,"dy":-2},{"dx":7,"dy":-8},{"dx":9,"dy":-7},{"dx":7,"dy":-4},{"dx":7,"dy":-3},{"dx":8,"dy":-3},{"dx":1,"dy":0},{"dx":7,"dy":-2},{"dx":7,"dy":0},{"dx":9,"dy":6},{"dx":8,"dy":6},{"dx":4,"dy":8},{"dx":3,"dy":6},{"dx":3,"dy":8},{"dx":3,"dy":10},{"dx":3,"dy":10},{"dx":1,"dy":1},{"dx":0,"dy":4},{"dx":1,"dy":1},{"dx":0,"dy":1},{"dx":0,"dy":2},{"dx":0,"dy":9},{"dx":0,"dy":1},{"dx":-5,"dy":17},{"dx":-4,"dy":6},{"dx":0,"dy":1},{"dx":-6,"dy":8},{"dx":-1,"dy":2},{"dx":-5,"dy":6},{"dx":0,"dy":0},{"dx":-3,"dy":1},{"dx":-2,"dy":0},{"dx":-3,"dy":0},{"dx":-8,"dy":-2},{"dx":-8,"dy":-4},{"dx":-7,"dy":-4},{"dx":-8,"dy":-5},{"dx":-6,"dy":-7},{"dx":0,"dy":0},{"dx":-6,"dy":-5},{"dx":0,"dy":0},{"dx":0,"dy":-1},{"dx":-1,"dy":-2},{"dx":0,"dy":0},{"dx":-1,"dy":-1},{"dx":0,"dy":0},{"dx":0,"dy":0},{"dx":0,"dy":0},{"dx":0,"dy":0},{"dx":0,"dy":0},{"dx":0,"dy":0},{"dx":0,"dy":0},{"dx":0,"dy":0},{"dx":0,"dy":0},{"dx":-1,"dy":-2},{"dx":0,"dy":0},{"dx":0,"dy":-1},{"dx":0,"dy":-3},{"dx":1,"dy":-2},{"dx":0,"dy":-1},{"dx":1,"dy":-3},{"dx":0,"dy":-2},{"dx":0,"dy":-2},{"dx":1,"dy":-2},{"dx":0,"dy":-2},{"dx":0,"dy":0},{"dx":0,"dy":-1},{"dx":1,"dy":-1},{"dx":0,"dy":-2},{"dx":4,"dy":-10},{"dx":0,"dy":0},{"dx":0,"dy":-3},{"dx":1,"dy":-3},{"dx":0,"dy":-1},{"dx":1,"dy":-1},{"dx":0,"dy":0},{"dx":0,"dy":-2},{"dx":0,"dy":-2},{"dx":0,"dy":-1},{"dx":0,"dy":-1},{"dx":0,"dy":-1},{"dx":0,"dy":0},{"dx":0,"dy":-1},{"dx":0,"dy":0},{"dx":0,"dy":0},{"dx":-1,"dy":-2},{"dx":-2,"dy":0},{"dx":-7,"dy":-2},{"dx":-8,"dy":0},{"dx":-1,"dy":0},{"dx":-8,"dy":1},{"dx":-7,"dy":2},{"dx":-7,"dy":2},{"dx":-8,"dy":2},{"dx":-8,"dy":0},{"dx":-1,"dy":0},{"dx":-1,"dy":1},{"dx":0,"dy":0},{"dx":0,"dy":0},{"dx":0,"dy":0},{"dx":0,"dy":0},{"dx":0,"dy":0},{"dx":-1,"dy":0},{"dx":0,"dy":0},{"dx":-1,"dy":0},{"dx":0,"dy":0},{"dx":-2,"dy":-2},{"dx":0,"dy":-1},{"dx":0,"dy":0},{"dx":0,"dy":0},{"dx":0,"dy":-1},{"dx":-1,"dy":-1},{"dx":0,"dy":-2},{"dx":0,"dy":-1},{"dx":0,"dy":0},{"dx":2,"dy":-3},{"dx":7,"dy":-5},{"dx":1,"dy":0},{"dx":17,"dy":-6},{"dx":7,"dy":-2},{"dx":1,"dy":0},{"dx":9,"dy":-1},{"dx":9,"dy":0},{"dx":7,"dy":2},{"dx":8,"dy":1},{"dx":9,"dy":2},{"dx":8,"dy":3},{"dx":7,"dy":3},{"dx":0,"dy":1},{"dx":6,"dy":4},{"dx":2,"dy":2},{"dx":3,"dy":6},{"dx":1,"dy":2},{"dx":2,"dy":10},{"dx":0,"dy":2},{"dx":0,"dy":7},{"dx":0,"dy":9},{"dx":0,"dy":2},{"dx":0,"dy":3},{"dx":0,"dy":9},{"dx":-1,"dy":0},{"dx":-1,"dy":10},{"dx":-3,"dy":10},{"dx":-1,"dy":1},{"dx":-3,"dy":8},{"dx":-2,"dy":3},{"dx":-1,"dy":7},{"dx":-1,"dy":2},{"dx":0,"dy":1},{"dx":0,"dy":2},{"dx":0,"dy":2},{"dx":2,"dy":9},{"dx":1,"dy":1},{"dx":1,"dy":1},{"dx":3,"dy":2},{"dx":1,"dy":0},{"dx":2,"dy":1},{"dx":8,"dy":2},{"dx":2,"dy":-1},{"dx":7,"dy":0},{"dx":1,"dy":-1},{"dx":1,"dy":0},{"dx":6,"dy":-4},{"dx":1,"dy":-2},{"dx":2,"dy":-1},{"dx":5,"dy":-8},{"dx":0,"dy":-1},{"dx":0,"dy":-3},{"dx":3,"dy":-9},{"dx":0,"dy":-2},{"dx":1,"dy":-2},{"dx":0,"dy":-8},{"dx":0,"dy":-3},{"dx":0,"dy":-9},{"dx":-1,"dy":-1},{"dx":-5,"dy":-9},{"dx":0,"dy":0},{"dx":-5,"dy":-4},{"dx":-7,"dy":-6},{"dx":-8,"dy":-6},{"dx":-1,"dy":0},{"dx":-3,"dy":-1},{"dx":-3,"dy":-1},{"dx":-7,"dy":-2},{"dx":-7,"dy":0},{"dx":-7,"dy":0},{"dx":-7,"dy":2},{"dx":-7,"dy":3},{"dx":-8,"dy":5},{"dx":-7,"dy":5},{"dx":0,"dy":1},{"dx":-6,"dy":4},{"dx":-5,"dy":6},{"dx":-1,"dy":1},{"dx":-7,"dy":6},{"dx":-1,"dy":1},{"dx":-1,"dy":0},{"dx":-8,"dy":3},{"dx":-8,"dy":0},{"dx":-1,"dy":0},{"dx":-8,"dy":0},{"dx":-9,"dy":-3},{"dx":-6,"dy":-5},{"dx":-8,"dy":-9},{"dx":-2,"dy":-8},{"dx":-4,"dy":-8},{"dx":-2,"dy":-12},{"dx":0,"dy":-2},{"dx":0,"dy":-3},{"dx":0,"dy":-9},{"dx":0,"dy":-1},{"dx":0,"dy":-3},{"dx":0,"dy":-5},{"dx":0,"dy":-2},{"dx":2,"dy":-2},{"dx":1,"dy":-3},{"dx":6,"dy":-5},{"dx":0,"dy":0},{"dx":10,"dy":-4},{"dx":10,"dy":-2},{"dx":5,"dy":-1},{"dx":8,"dy":-1},{"dx":8,"dy":0},{"dx":1,"dy":0},{"dx":4,"dy":0},{"dx":6,"dy":0},{"dx":1,"dy":1},{"dx":8,"dy":3},{"dx":1,"dy":0},{"dx":1,"dy":0},{"dx":7,"dy":6},{"dx":5,"dy":4},{"dx":6,"dy":6},{"dx":14,"dy":14},{"dx":0,"dy":0},{"dx":5,"dy":4},{"dx":1,"dy":1},{"dx":2,"dy":1},{"dx":2,"dy":1},{"dx":2,"dy":1},{"dx":2,"dy":1},{"dx":2,"dy":1},{"dx":3,"dy":1},{"dx":7,"dy":3},{"dx":1,"dy":0},{"dx":3,"dy":1},{"dx":2,"dy":0},{"dx":2,"dy":0},{"dx":3,"dy":0},{"dx":8,"dy":0},{"dx":0,"dy":0},{"dx":1,"dy":0},{"dx":7,"dy":-5},{"dx":4,"dy":-9},{"dx":0,"dy":0},{"dx":1,"dy":-3},{"dx":1,"dy":-4},{"dx":0,"dy":-3},{"dx":0,"dy":-3},{"dx":0,"dy":-1},{"dx":0,"dy":-3},{"dx":0,"dy":-2},{"dx":-1,"dy":-2},{"dx":-6,"dy":-7},{"dx":-2,"dy":-1},{"dx":-7,"dy":-3},{"dx":-2,"dy":0},{"dx":-9,"dy":-1},{"dx":0,"dy":0},{"dx":-3,"dy":0},{"dx":-2,"dy":0},{"dx":-1,"dy":0},{"dx":-3,"dy":0},{"dx":-2,"dy":0},{"dx":-2,"dy":0},{"dx":-8,"dy":5},{"dx":-1,"dy":0},{"dx":-6,"dy":4},{"dx":-6,"dy":4},{"dx":-6,"dy":5},{"dx":-1,"dy":0},{"dx":-7,"dy":5},{"dx":-2,"dy":2},{"dx":-5,"dy":3},{"dx":-2,"dy":1},{"dx":-6,"dy":4},{"dx":0,"dy":0},{"dx":-3,"dy":1},{"dx":-3,"dy":0},{"dx":-2,"dy":0},{"dx":-8,"dy":0},{"dx":-8,"dy":-3},{"dx":0,"dy":-1},{"dx":-1,"dy":-1},{"dx":-4,"dy":-2},{"dx":-1,"dy":-1},{"dx":-2,"dy":-1},{"dx":-3,"dy":-2},{"dx":-2,"dy":-2},{"dx":-2,"dy":-1},{"dx":-2,"dy":-2},{"dx":-1,"dy":-1},{"dx":-1,"dy":0},{"dx":0,"dy":-1},{"dx":-1,"dy":0},{"dx":0,"dy":-1},{"dx":-1,"dy":-1},{"dx":0,"dy":-1},{"dx":-2,"dy":-1},{"dx":0,"dy":-2},{"dx":0,"dy":-1},{"dx":-1,"dy":0},{"dx":0,"dy":-1},{"dx":0,"dy":0},{"dx":0,"dy":0},{"dx":0,"dy":-3},{"dx":1,"dy":-2},{"dx":6,"dy":-4},{"dx":3,"dy":-1},{"dx":6,"dy":-3},{"dx":1,"dy":0},{"dx":9,"dy":-2},{"dx":0,"dy":0},{"dx":8,"dy":0},{"dx":9,"dy":0},{"dx":1,"dy":1},{"dx":9,"dy":4},{"dx":5,"dy":4},{"dx":1,"dy":0},{"dx":6,"dy":4},{"dx":8,"dy":6},{"dx":5,"dy":3},{"dx":1,"dy":2},{"dx":2,"dy":1},{"dx":1,"dy":1},{"dx":1,"dy":1},{"dx":1,"dy":2},{"dx":2,"dy":10},{"dx":1,"dy":11},{"dx":0,"dy":7},{"dx":0,"dy":8},{"dx":-2,"dy":10},{"dx":-4,"dy":10},{"dx":0,"dy":0},{"dx":0,"dy":1},{"dx":-1,"dy":1},{"dx":-1,"dy":1},{"dx":0,"dy":2},{"dx":0,"dy":1},{"dx":-1,"dy":4},{"dx":-1,"dy":7},{"dx":0,"dy":1},{"dx":0,"dy":2},{"dx":0,"dy":1},{"dx":0,"dy":1},{"dx":0,"dy":4},{"dx":2,"dy":7},{"dx":0,"dy":0},{"dx":2,"dy":2},{"dx":5,"dy":5},{"dx":1,"dy":1},{"dx":2,"dy":0},{"dx":2,"dy":0},{"dx":2,"dy":0},{"dx":3,"dy":0},{"dx":6,"dy":-2},{"dx":1,"dy":-1},{"dx":1,"dy":-2},{"dx":2,"dy":-1},{"dx":4,"dy":-5},{"dx":2,"dy":-3},{"dx":0,"dy":-1},{"dx":1,"dy":-2},{"dx":0,"dy":-1},{"dx":1,"dy":-2},{"dx":0,"dy":-1},{"dx":0,"dy":-2},{"dx":0,"dy":-3},{"dx":0,"dy":-2},{"dx":-4,"dy":-9},{"dx":-1,"dy":-1},{"dx":-1,"dy":-2},{"dx":-5,"dy":-5},{"dx":-8,"dy":-6},{"dx":-1,"dy":-1},{"dx":-14,"dy":-7},{"dx":-2,"dy":-2}],"trial_type":"plugin-moving-dots-2","trial_index":14,"plugin_version":"0.0.1","time_elapsed":87030},{"task":"fixation","rt":769,"stimulus":"<div style=\"font-size:60px;\">+</div>","response":" ","trial_type":"html-keyboard-response","trial_index":15,"plugin_version":"2.1.0","time_elapsed":87802},{"task":"movingdots","control_change":0,"mouse_data":[{"dx":0,"dy":0},{"dx":0,"dy":0},{"dx":0,"dy":0},{"dx":0,"dy":0},{"dx":0,"dy":0},{"dx":0,"dy":0},{"dx":0,"dy":0},{"dx":0,"dy":0},{"dx":0,"dy":0},{"dx":0,"dy":0},{"dx":0,"dy":0},{"dx":0,"dy":0},{"dx":0,"dy":0},{"dx":0,"dy":0},{"dx":0,"dy":0},{"dx":0,"dy":0},{"dx":0,"dy":0},{"dx":0,"dy":0},{"dx":0,"dy":0},{"dx":0,"dy":0},{"dx":0,"dy":0},{"dx":0,"dy":0},{"dx":0,"dy":0},{"dx":0,"dy":0},{"dx":0,"dy":0},{"dx":0,"dy":0},{"dx":-3,"dy":-6},{"dx":-1,"dy":-1},{"dx":-1,"dy":-2},{"dx":-1,"dy":-2},{"dx":-1,"dy":-3},{"dx":-1,"dy":-2},{"dx":-1,"dy":-2},{"dx":-4,"dy":-9},{"dx":-1,"dy":-2},{"dx":-1,"dy":-3},{"dx":-2,"dy":-2},{"dx":-2,"dy":-1},{"dx":-2,"dy":-2},{"dx":-2,"dy":-1},{"dx":-6,"dy":-1},{"dx":-9,"dy":3},{"dx":-8,"dy":3},{"dx":-7,"dy":6},{"dx":-5,"dy":4},{"dx":-1,"dy":1},{"dx":-5,"dy":5},{"dx":-1,"dy":2},{"dx":-5,"dy":7},{"dx":-4,"dy":8},{"dx":0,"dy":1},{"dx":-2,"dy":9},{"dx":0,"dy":8},{"dx":0,"dy":2},{"dx":0,"dy":10},{"dx":0,"dy":1},{"dx":0,"dy":2},{"dx":1,"dy":9},{"dx":1,"dy":1},{"dx":2,"dy":9},{"dx":5,"dy":7},{"dx":0,"dy":0},{"dx":5,"dy":4},{"dx":10,"dy":5},{"dx":7,"dy":2},{"dx":7,"dy":2},{"dx":9,"dy":2},{"dx":8,"dy":0},{"dx":8,"dy":0},{"dx":9,"dy":-1},{"dx":0,"dy":0},{"dx":8,"dy":-3},{"dx":2,"dy":-1},{"dx":6,"dy":-2},{"dx":1,"dy":0},{"dx":8,"dy":-4},{"dx":0,"dy":-1},{"dx":7,"dy":-3},{"dx":7,"dy":-6},{"dx":7,"dy":-8},{"dx":1,"dy":0},{"dx":5,"dy":-7},{"dx":0,"dy":0},{"dx":1,"dy":-3},{"dx":3,"dy":-9},{"dx":0,"dy":-2},{"dx":1,"dy":-2},{"dx":1,"dy":-9},{"dx":0,"dy":-3},{"dx":0,"dy":-2},{"dx":0,"dy":-2},{"dx":-1,"dy":-4},{"dx":-2,"dy":-3},{"dx":-3,"dy":-7},{"dx":-2,"dy":-2},{"dx":-6,"dy":-4},{"dx":-1,"dy":-1},{"dx":-3,"dy":-2},{"dx":-2,"dy":-1},{"dx":-2,"dy":-1},{"dx":-2,"dy":0},{"dx":-2,"dy":-1},{"dx":-2,"dy":0},{"dx":-2,"dy":-1},{"dx":-1,"dy":0},{"dx":0,"dy":0},{"dx":0,"dy":0},{"dx":0,"dy":0},{"dx":0,"dy":0},{"dx":0,"dy":0},{"dx":0,"dy":0},{"dx":0,"dy":0},{"dx":0,"dy":0},{"dx":0,"dy":0},{"dx":0,"dy":0},{"dx":0,"dy":0},{"dx":0,"dy":0},{"dx":9,"dy":0},{"dx":17,"dy":2},{"dx":8,"dy":1},{"dx":1,"dy":0},{"dx":7,"dy":1},{"dx":2,"dy":0},{"dx":6,"dy":2},{"dx":8,"dy":2},{"dx":1,"dy":0},{"dx":2,"dy":0},{"dx":3,"dy":0},{"dx":2,"dy":0},{"dx":1,"dy":0},{"dx":3,"dy":0},{"dx":2,"dy":0},{"dx":1,"dy":0},{"dx":3,"dy":0},{"dx":1,"dy":0},{"dx":2,"dy":1},{"dx":2,"dy":0},{"dx":1,"dy":1},{"dx":1,"dy":1},{"dx":4,"dy":6},{"dx":1,"dy":2},{"dx":0,"dy":3},{"dx":0,"dy":2},{"dx":0,"dy":4},{"dx":0,"dy":0},{"dx":0,"dy":1},{"dx":0,"dy":1},{"dx":0,"dy":0},{"dx":0,"dy":1},{"dx":-11,"dy":8},{"dx":-8,"dy":2},{"dx":-7,"dy":1},{"dx":-8,"dy":1},{"dx":-8,"dy":0},{"dx":-1,"dy":0},{"dx":-15,"dy":-5},{"dx":-2,"dy":-1},{"dx":-11,"dy":-4},{"dx":-15,"dy":-4},{"dx":-8,"dy":-2},{"dx":-8,"dy":-1},{"dx":-8,"dy":-3},{"dx":-1,"dy":0},{"dx":-2,"dy":-1},{"dx":-8,"dy":-1},{"dx":-3,"dy":0},{"dx":-7,"dy":0},{"dx":-9,"dy":1},{"dx":-1,"dy":0},{"dx":-7,"dy":2},{"dx":-9,"dy":4},{"dx":-7,"dy":3},{"dx":-2,"dy":0},{"dx":-4,"dy":4},{"dx":-2,"dy":2},{"dx":-2,"dy":2},{"dx":-3,"dy":6},{"dx":0,"dy":1},{"dx":-2,"dy":2},{"dx":-3,"dy":7},{"dx":0,"dy":2},{"dx":0,"dy":2},{"dx":-1,"dy":3},{"dx":0,"dy":1},{"dx":0,"dy":1},{"dx":4,"dy":8},{"dx":1,"dy":1},{"dx":7,"dy":5},{"dx":8,"dy":3},{"dx":9,"dy":2},{"dx":9,"dy":2},{"dx":15,"dy":1},{"dx":6,"dy":0},{"dx":2,"dy":0},{"dx":9,"dy":-2},{"dx":8,"dy":-2},{"dx":9,"dy":-1},{"dx":9,"dy":-2},{"dx":8,"dy":-2},{"dx":9,"dy":-2},{"dx":7,"dy":-3},{"dx":1,"dy":-1},{"dx":2,"dy":-1},{"dx":7,"dy":-4},{"dx":0,"dy":-1},{"dx":2,"dy":-2},{"dx":2,"dy":-3},{"dx":1,"dy":-2},{"dx":2,"dy":0},{"dx":3,"dy":-3},{"dx":2,"dy":0},{"dx":7,"dy":-1},{"dx":0,"dy":0},{"dx":2,"dy":0},{"dx":1,"dy":0},{"dx":2,"dy":1},{"dx":1,"dy":2},{"dx":4,"dy":5},{"dx":0,"dy":10},{"dx":0,"dy":0},{"dx":0,"dy":3},{"dx":-1,"dy":9},{"dx":-1,"dy":1},{"dx":-3,"dy":5},{"dx":-2,"dy":2},{"dx":-5,"dy":5},{"dx":-4,"dy":4},{"dx":-8,"dy":5},{"dx":-9,"dy":3},{"dx":-8,"dy":2},{"dx":-9,"dy":1},{"dx":-6,"dy":1},{"dx":-8,"dy":1},{"dx":-8,"dy":0},{"dx":-13,"dy":-1},{"dx":-1,"dy":0},{"dx":-7,"dy":-3},{"dx":-15,"dy":-10},{"dx":-7,"dy":-6},{"dx":-5,"dy":-6},{"dx":-6,"dy":-7},{"dx":-5,"dy":-7},{"dx":-5,"dy":-6},{"dx":-5,"dy":-7},{"dx":-1,"dy":-2},{"dx":-5,"dy":-6},{"dx":-2,"dy":-2},{"dx":0,"dy":-2},{"dx":-3,"dy":-7},{"dx":-1,"dy":-4},{"dx":0,"dy":-2},{"dx":0,"dy":-3},{"dx":0,"dy":-3},{"dx":0,"dy":-2},{"dx":0,"dy":-1},{"dx":1,"dy":-4},{"dx":0,"dy":-2},{"dx":1,"dy":-2},{"dx":1,"dy":-2},{"dx":7,"dy":-5},{"dx":1,"dy":0},{"dx":10,"dy":-2},{"dx":7,"dy":-1},{"dx":2,"dy":0},{"dx":7,"dy":0},{"dx":8,"dy":0},{"dx":1,"dy":0},{"dx":7,"dy":0},{"dx":2,"dy":0},{"dx":6,"dy":3},{"dx":9,"dy":3},{"dx":7,"dy":3},{"dx":8,"dy":2},{"dx":9,"dy":3},{"dx":7,"dy":5},{"dx":1,"dy":0},{"dx":7,"dy":6},{"dx":1,"dy":0},{"dx":5,"dy":6},{"dx":1,"dy":0},{"dx":5,"dy":4},{"dx":1,"dy":1},{"dx":6,"dy":4},{"dx":1,"dy":1},{"dx":2,"dy":1},{"dx":6,"dy":2},{"dx":3,"dy":0},{"dx":7,"dy":0},{"dx":2,"dy":0},{"dx":8,"dy":0},{"dx":0,"dy":0},{"dx":2,"dy":-1},{"dx":2,"dy":-1},{"dx":2,"dy":-2},{"dx":1,"dy":-1},{"dx":2,"dy":-3},{"dx":3,"dy":-6},{"dx":1,"dy":-4},{"dx":1,"dy":-7},{"dx":0,"dy":0},{"dx":0,"dy":-4},{"dx":0,"dy":-2},{"dx":0,"dy":-3},{"dx":-2,"dy":-10},{"dx":-6,"dy":-8},{"dx":-5,"dy":-6},{"dx":-7,"dy":-5},{"dx":-6,"dy":-3},{"dx":-10,"dy":-4},{"dx":-1,"dy":0},{"dx":-7,"dy":-3},{"dx":-2,"dy":-1},{"dx":-7,"dy":-1},{"dx":-8,"dy":-1},{"dx":-9,"dy":3},{"dx":-7,"dy":3},{"dx":-7,"dy":3},{"dx":-6,"dy":4},{"dx":-6,"dy":4},{"dx":-12,"dy":10},{"dx":-7,"dy":5},{"dx":-4,"dy":4},{"dx":-1,"dy":1},{"dx":-4,"dy":8},{"dx":0,"dy":1},{"dx":-3,"dy":11},{"dx":-1,"dy":7},{"dx":-1,"dy":1},{"dx":0,"dy":2},{"dx":0,"dy":1},{"dx":0,"dy":0},{"dx":0,"dy":0},{"dx":0,"dy":0},{"dx":0,"dy":0},{"dx":0,"dy":0},{"dx":-1,"dy":1},{"dx":0,"dy":0},{"dx":0,"dy":0},{"dx":0,"dy":0},{"dx":0,"dy":0},{"dx":0,"dy":0},{"dx":0,"dy":0},{"dx":0,"dy":1},{"dx":-1,"dy":2},{"dx":-3,"dy":10},{"dx":-1,"dy":0},{"dx":-3,"dy":7},{"dx":-3,"dy":8},{"dx":-2,"dy":9},{"dx":0,"dy":10},{"dx":0,"dy":1},{"dx":2,"dy":8},{"dx":0,"dy":1},{"dx":4,"dy":8},{"dx":8,"dy":6},{"dx":10,"dy":4},{"dx":6,"dy":0},{"dx":9,"dy":0},{"dx":8,"dy":0},{"dx":7,"dy":-1},{"dx":10,"dy":-1},{"dx":0,"dy":0},{"dx":8,"dy":-2},{"dx":9,"dy":-5},{"dx":0,"dy":-1},{"dx":9,"dy":-14},{"dx":0,"dy":-2},{"dx":3,"dy":-9},{"dx":2,"dy":-10},{"dx":0,"dy":-3},{"dx":0,"dy":-2},{"dx":0,"dy":-4},{"dx":0,"dy":-7},{"dx":0,"dy":-3},{"dx":-5,"dy":-9},{"dx":-6,"dy":-8},{"dx":-7,"dy":-7},{"dx":-8,"dy":-5},{"dx":-1,"dy":0},{"dx":-8,"dy":-3},{"dx":-14,"dy":-3},{"dx":-9,"dy":-1},{"dx":-8,"dy":0},{"dx":-9,"dy":0},{"dx":0,"dy":0},{"dx":-1,"dy":0},{"dx":-1,"dy":0},{"dx":-1,"dy":0},{"dx":-2,"dy":0},{"dx":-1,"dy":0},{"dx":-2,"dy":1},{"dx":-5,"dy":4},{"dx":-1,"dy":0},{"dx":-1,"dy":2},{"dx":-1,"dy":0},{"dx":-1,"dy":2},{"dx":-1,"dy":2},{"dx":-1,"dy":0},{"dx":0,"dy":0},{"dx":0,"dy":1},{"dx":0,"dy":0},{"dx":0,"dy":2},{"dx":0,"dy":1},{"dx":0,"dy":2},{"dx":2,"dy":2},{"dx":1,"dy":1},{"dx":1,"dy":2},{"dx":6,"dy":5},{"dx":1,"dy":2},{"dx":1,"dy":1},{"dx":2,"dy":2},{"dx":2,"dy":1},{"dx":1,"dy":1},{"dx":7,"dy":0},{"dx":10,"dy":0},{"dx":6,"dy":0},{"dx":9,"dy":-2},{"dx":7,"dy":-1},{"dx":0,"dy":0},{"dx":2,"dy":-1},{"dx":2,"dy":-1},{"dx":1,"dy":-1},{"dx":2,"dy":0},{"dx":0,"dy":-1},{"dx":0,"dy":0},{"dx":1,"dy":0},{"dx":0,"dy":0},{"dx":0,"dy":0},{"dx":0,"dy":0},{"dx":0,"dy":0},{"dx":0,"dy":0},{"dx":1,"dy":-2},{"dx":0,"dy":-3},{"dx":-4,"dy":-9},{"dx":-1,"dy":-1},{"dx":-8,"dy":-4},{"dx":-2,"dy":-1},{"dx":-5,"dy":-2},{"dx":-8,"dy":-2},{"dx":-2,"dy":0},{"dx":-2,"dy":0},{"dx":-3,"dy":-1},{"dx":-2,"dy":0},{"dx":0,"dy":0},{"dx":0,"dy":0},{"dx":-2,"dy":0},{"dx":-1,"dy":0},{"dx":-3,"dy":0},{"dx":0,"dy":0},{"dx":0,"dy":0},{"dx":-1,"dy":0},{"dx":0,"dy":0},{"dx":0,"dy":0}],"trial_type":"plugin-moving-dots-2","trial_index":16,"plugin_version":"0.0.1","time_elapsed":95314},{"task":"fixation","rt":3591,"stimulus":"<div style=\"font-size:60px;\">+</div>","response":" ","trial_type":"html-keyboard-response","trial_index":17,"plugin_version":"2.1.0","time_elapsed":98905},{"task":"movingdots","control_change":0,"mouse_data":[{"dx":0,"dy":0},{"dx":0,"dy":0},{"dx":0,"dy":0},{"dx":0,"dy":0},{"dx":0,"dy":0},{"dx":0,"dy":0},{"dx":0,"dy":0},{"dx":0,"dy":0},{"dx":0,"dy":0},{"dx":0,"dy":0},{"dx":0,"dy":0},{"dx":0,"dy":0},{"dx":0,"dy":0},{"dx":0,"dy":0},{"dx":0,"dy":0},{"dx":0,"dy":0},{"dx":0,"dy":0},{"dx":0,"dy":0},{"dx":0,"dy":0},{"dx":0,"dy":0},{"dx":0,"dy":0},{"dx":0,"dy":0},{"dx":0,"dy":0},{"dx":0,"dy":0},{"dx":0,"dy":0},{"dx":0,"dy":0},{"dx":0,"dy":0},{"dx":-1,"dy":0},{"dx":-2,"dy":-2},{"dx":-2,"dy":0},{"dx":-8,"dy":0},{"dx":-1,"dy":0},{"dx":-3,"dy":0},{"dx":-2,"dy":0},{"dx":-6,"dy":3},{"dx":-7,"dy":7},{"dx":-1,"dy":1},{"dx":-5,"dy":7},{"dx":-3,"dy":8},{"dx":-2,"dy":2},{"dx":0,"dy":3},{"dx":-1,"dy":2},{"dx":0,"dy":0},{"dx":0,"dy":2},{"dx":5,"dy":4},{"dx":8,"dy":2},{"dx":15,"dy":4},{"dx":2,"dy":0},{"dx":7,"dy":1},{"dx":3,"dy":0},{"dx":2,"dy":0},{"dx":2,"dy":0},{"dx":8,"dy":0},{"dx":6,"dy":-1},{"dx":8,"dy":-1},{"dx":8,"dy":-2},{"dx":8,"dy":-1},{"dx":10,"dy":-2},{"dx":0,"dy":0},{"dx":10,"dy":-1},{"dx":0,"dy":0},{"dx":2,"dy":0},{"dx":8,"dy":3},{"dx":4,"dy":6},{"dx":3,"dy":9},{"dx":1,"dy":2},{"dx":0,"dy":1},{"dx":0,"dy":3},{"dx":0,"dy":3},{"dx":0,"dy":2},{"dx":-6,"dy":7},{"dx":-10,"dy":4},{"dx":-12,"dy":2},{"dx":-15,"dy":1},{"dx":-15,"dy":-1},{"dx":-8,"dy":-2},{"dx":-6,"dy":-3},{"dx":-10,"dy":-8},{"dx":-8,"dy":-5},{"dx":-6,"dy":-3},{"dx":-7,"dy":-4},{"dx":-2,"dy":-2},{"dx":-7,"dy":-5},{"dx":-8,"dy":-5},{"dx":0,"dy":0},{"dx":-1,"dy":-2},{"dx":-2,"dy":-2},{"dx":-1,"dy":-1},{"dx":0,"dy":-1},{"dx":-2,"dy":-2},{"dx":0,"dy":-2},{"dx":-1,"dy":-2},{"dx":-1,"dy":-3},{"dx":0,"dy":-2},{"dx":-1,"dy":-1},{"dx":0,"dy":-3},{"dx":-1,"dy":-3},{"dx":0,"dy":-2},{"dx":-1,"dy":-2},{"dx":-2,"dy":-2},{"dx":-5,"dy":-4},{"dx":-8,"dy":-1},{"dx":-10,"dy":0},{"dx":-9,"dy":3},{"dx":-7,"dy":3},{"dx":-2,"dy":1},{"dx":-2,"dy":1},{"dx":-2,"dy":1},{"dx":-1,"dy":0},{"dx":0,"dy":0},{"dx":0,"dy":1},{"dx":0,"dy":0},{"dx":-1,"dy":2},{"dx":0,"dy":3},{"dx":0,"dy":3},{"dx":0,"dy":2},{"dx":3,"dy":8},{"dx":2,"dy":1},{"dx":6,"dy":4},{"dx":8,"dy":3},{"dx":10,"dy":0},{"dx":1,"dy":0},{"dx":8,"dy":0},{"dx":8,"dy":0},{"dx":1,"dy":-1},{"dx":2,"dy":-1},{"dx":6,"dy":-1},{"dx":1,"dy":-1},{"dx":8,"dy":-2},{"dx":9,"dy":-2},{"dx":1,"dy":-1},{"dx":7,"dy":0},{"dx":2,"dy":-2},{"dx":7,"dy":-1},{"dx":0,"dy":0},{"dx":3,"dy":0},{"dx":1,"dy":-2},{"dx":2,"dy":0},{"dx":2,"dy":-2},{"dx":2,"dy":-1},{"dx":1,"dy":0},{"dx":8,"dy":-6},{"dx":0,"dy":0},{"dx":1,"dy":-2},{"dx":5,"dy":-4},{"dx":1,"dy":0},{"dx":1,"dy":-1},{"dx":2,"dy":-1},{"dx":2,"dy":-1},{"dx":2,"dy":-1},{"dx":3,"dy":-1},{"dx":6,"dy":-3},{"dx":2,"dy":0},{"dx":3,"dy":-1},{"dx":5,"dy":-1},{"dx":2,"dy":0},{"dx":2,"dy":-1},{"dx":3,"dy":0},{"dx":1,"dy":0},{"dx":3,"dy":0},{"dx":2,"dy":0},{"dx":2,"dy":0},{"dx":9,"dy":2},{"dx":0,"dy":0},{"dx":8,"dy":2},{"dx":2,"dy":1},{"dx":1,"dy":1},{"dx":5,"dy":3},{"dx":2,"dy":1},{"dx":5,"dy":6},{"dx":1,"dy":1},{"dx":5,"dy":7},{"dx":0,"dy":1},{"dx":0,"dy":2},{"dx":2,"dy":1},{"dx":0,"dy":1},{"dx":0,"dy":0},{"dx":0,"dy":0},{"dx":-2,"dy":9},{"dx":-1,"dy":0},{"dx":-10,"dy":5},{"dx":-15,"dy":4},{"dx":-5,"dy":1},{"dx":-2,"dy":0},{"dx":-8,"dy":0},{"dx":-9,"dy":-1},{"dx":-9,"dy":-5},{"dx":-8,"dy":-3},{"dx":-8,"dy":-2},{"dx":-7,"dy":-3},{"dx":-9,"dy":-4},{"dx":-2,"dy":-1},{"dx":-4,"dy":-3},{"dx":-7,"dy":-6},{"dx":0,"dy":-1},{"dx":-5,"dy":-8},{"dx":0,"dy":-1},{"dx":-2,"dy":-2},{"dx":-1,"dy":-1},{"dx":-5,"dy":-8},{"dx":-1,"dy":-2},{"dx":-5,"dy":-5},{"dx":-1,"dy":-2},{"dx":-1,"dy":-3},{"dx":-4,"dy":-9},{"dx":0,"dy":-2},{"dx":-2,"dy":-10},{"dx":1,"dy":-7},{"dx":2,"dy":-11},{"dx":2,"dy":-7},{"dx":2,"dy":-2},{"dx":1,"dy":-3},{"dx":5,"dy":-5},{"dx":1,"dy":-1},{"dx":6,"dy":-6},{"dx":0,"dy":0},{"dx":1,"dy":-1},{"dx":2,"dy":-2},{"dx":7,"dy":-4},{"dx":7,"dy":-2},{"dx":8,"dy":-2},{"dx":8,"dy":-1},{"dx":9,"dy":-2},{"dx":8,"dy":0},{"dx":8,"dy":-1},{"dx":7,"dy":0},{"dx":1,"dy":0},{"dx":7,"dy":3},{"dx":9,"dy":7},{"dx":4,"dy":5},{"dx":8,"dy":9},{"dx":4,"dy":7},{"dx":6,"dy":16},{"dx":0,"dy":2},{"dx":4,"dy":8},{"dx":4,"dy":11},{"dx":1,"dy":9},{"dx":0,"dy":1},{"dx":0,"dy":10},{"dx":-1,"dy":8},{"dx":-3,"dy":9},{"dx":-7,"dy":11},{"dx":-4,"dy":9},{"dx":-7,"dy":6},{"dx":-8,"dy":7},{"dx":-9,"dy":5},{"dx":0,"dy":0},{"dx":-15,"dy":4},{"dx":-9,"dy":0},{"dx":-11,"dy":-1},{"dx":-10,"dy":-2},{"dx":-10,"dy":-3},{"dx":-5,"dy":-3},{"dx":-7,"dy":-6},{"dx":-5,"dy":-7},{"dx":-1,"dy":-1},{"dx":-5,"dy":-7},{"dx":-6,"dy":-9},{"dx":0,"dy":-1},{"dx":-4,"dy":-5},{"dx":-5,"dy":-8},{"dx":-1,"dy":-1},{"dx":-2,"dy":-2},{"dx":-3,"dy":-7},{"dx":-1,"dy":-3},{"dx":-1,"dy":-2},{"dx":0,"dy":-4},{"dx":0,"dy":-2},{"dx":0,"dy":-9},{"dx":0,"dy":-2},{"dx":3,"dy":-7},{"dx":0,"dy":-1},{"dx":2,"dy":-4},{"dx":4,"dy":-5},{"dx":1,"dy":-2},{"dx":6,"dy":-6},{"dx":2,"dy":-1},{"dx":7,"dy":-6},{"dx":6,"dy":-4},{"dx":1,"dy":-1},{"dx":6,"dy":-3},{"dx":1,"dy":-1},{"dx":6,"dy":-3},{"dx":2,"dy":0},{"dx":9,"dy":-2},{"dx":10,"dy":-2},{"dx":6,"dy":-1},{"dx":11,"dy":0},{"dx":7,"dy":0},{"dx":1,"dy":0},{"dx":8,"dy":1},{"dx":9,"dy":3},{"dx":7,"dy":3},{"dx":8,"dy":5},{"dx":0,"dy":0},{"dx":8,"dy":5},{"dx":9,"dy":5},{"dx":7,"dy":4},{"dx":2,"dy":0},{"dx":8,"dy":3},{"dx":1,"dy":0},{"dx":9,"dy":0},{"dx":2,"dy":0},{"dx":6,"dy":0},{"dx":1,"dy":0},{"dx":2,"dy":0},{"dx":0,"dy":0},{"dx":2,"dy":-1},{"dx":1,"dy":-1},{"dx":1,"dy":-2},{"dx":2,"dy":-1},{"dx":1,"dy":-3},{"dx":1,"dy":-2},{"dx":0,"dy":-2},{"dx":1,"dy":-9},{"dx":-1,"dy":-8},{"dx":-1,"dy":-2},{"dx":-4,"dy":-8},{"dx":-1,"dy":-3},{"dx":-4,"dy":-5},{"dx":-3,"dy":-3},{"dx":-4,"dy":-3},{"dx":-8,"dy":-5},{"dx":-10,"dy":-3},{"dx":-2,"dy":-1},{"dx":-8,"dy":-2},{"dx":-18,"dy":0},{"dx":-8,"dy":0},{"dx":-8,"dy":0},{"dx":-8,"dy":2},{"dx":-1,"dy":0},{"dx":-2,"dy":1},{"dx":-6,"dy":4},{"dx":-6,"dy":5},{"dx":-6,"dy":6},{"dx":-9,"dy":8},{"dx":-5,"dy":7},{"dx":-4,"dy":7},{"dx":-5,"dy":7},{"dx":-4,"dy":8},{"dx":0,"dy":1},{"dx":-3,"dy":8},{"dx":-2,"dy":11},{"dx":0,"dy":11},{"dx":0,"dy":8},{"dx":0,"dy":9},{"dx":2,"dy":10},{"dx":3,"dy":9},{"dx":1,"dy":9},{"dx":1,"dy":1},{"dx":0,"dy":2},{"dx":2,"dy":9},{"dx":0,"dy":2},{"dx":0,"dy":9},{"dx":1,"dy":2},{"dx":0,"dy":3},{"dx":0,"dy":2},{"dx":1,"dy":1},{"dx":0,"dy":0},{"dx":0,"dy":2},{"dx":2,"dy":2},{"dx":2,"dy":7},{"dx":1,"dy":2},{"dx":2,"dy":10},{"dx":2,"dy":9},{"dx":1,"dy":0},{"dx":1,"dy":3},{"dx":3,"dy":5},{"dx":0,"dy":1},{"dx":2,"dy":1},{"dx":1,"dy":2},{"dx":1,"dy":0},{"dx":2,"dy":0},{"dx":3,"dy":-1},{"dx":6,"dy":-2},{"dx":6,"dy":-4},{"dx":7,"dy":-8},{"dx":0,"dy":-1},{"dx":5,"dy":-8},{"dx":2,"dy":-7},{"dx":0,"dy":-2},{"dx":1,"dy":-9},{"dx":0,"dy":-8},{"dx":-1,"dy":-1},{"dx":-2,"dy":-9},{"dx":-3,"dy":-7},{"dx":-1,"dy":-2},{"dx":-2,"dy":-3},{"dx":-3,"dy":-2},{"dx":-1,"dy":-1},{"dx":-2,"dy":-2},{"dx":-3,"dy":0},{"dx":-7,"dy":-1},{"dx":-9,"dy":3},{"dx":-7,"dy":3},{"dx":-6,"dy":5},{"dx":-8,"dy":6},{"dx":-1,"dy":2},{"dx":-4,"dy":6},{"dx":0,"dy":3},{"dx":-2,"dy":9},{"dx":-1,"dy":1},{"dx":0,"dy":3},{"dx":0,"dy":0},{"dx":0,"dy":2},{"dx":0,"dy":1},{"dx":4,"dy":6},{"dx":7,"dy":8},{"dx":0,"dy":0},{"dx":2,"dy":3},{"dx":0,"dy":2},{"dx":1,"dy":1},{"dx":0,"dy":0},{"dx":0,"dy":0},{"dx":0,"dy":0},{"dx":-7,"dy":0},{"dx":-9,"dy":-4},{"dx":-9,"dy":-4},{"dx":-10,"dy":-7},{"dx":-1,"dy":0},{"dx":-6,"dy":-7},{"dx":-5,"dy":-7},{"dx":-6,"dy":-8},{"dx":-1,"dy":-1},{"dx":-1,"dy":-3},{"dx":-2,"dy":-9},{"dx":0,"dy":-1},{"dx":0,"dy":-3},{"dx":0,"dy":-1},{"dx":0,"dy":-3},{"dx":2,"dy":-9},{"dx":2,"dy":-2},{"dx":4,"dy":-5},{"dx":7,"dy":-6},{"dx":8,"dy":-3},{"dx":6,"dy":-2},{"dx":18,"dy":0},{"dx":9,"dy":0},{"dx":6,"dy":2},{"dx":9,"dy":3},{"dx":9,"dy":3},{"dx":7,"dy":2},{"dx":13,"dy":5},{"dx":1,"dy":0},{"dx":6,"dy":2},{"dx":8,"dy":2},{"dx":1,"dy":0},{"dx":7,"dy":2},{"dx":1,"dy":0},{"dx":2,"dy":1},{"dx":7,"dy":2},{"dx":2,"dy":2},{"dx":7,"dy":3}],"trial_type":"plugin-moving-dots-2","trial_index":18,"plugin_version":"0.0.1","time_elapsed":106414},{"task":"fixation","rt":569,"stimulus":"<div style=\"font-size:60px;\">+</div>","response":" ","trial_type":"html-keyboard-response","trial_index":19,"plugin_version":"2.1.0","time_elapsed":106985},{"task":"movingdots","control_change":0,"mouse_data":[{"dx":0,"dy":0},{"dx":0,"dy":0},{"dx":0,"dy":0},{"dx":0,"dy":0},{"dx":0,"dy":0},{"dx":0,"dy":0},{"dx":0,"dy":0},{"dx":0,"dy":0},{"dx":0,"dy":0},{"dx":0,"dy":0},{"dx":0,"dy":0},{"dx":0,"dy":0},{"dx":0,"dy":0},{"dx":0,"dy":0},{"dx":0,"dy":0},{"dx":0,"dy":0},{"dx":0,"dy":0},{"dx":0,"dy":0},{"dx":0,"dy":0},{"dx":0,"dy":0},{"dx":0,"dy":0},{"dx":0,"dy":0},{"dx":0,"dy":0},{"dx":0,"dy":0},{"dx":-8,"dy":-2},{"dx":-7,"dy":-4},{"dx":-8,"dy":-6},{"dx":-9,"dy":-6},{"dx":-7,"dy":-7},{"dx":-1,"dy":-1},{"dx":-7,"dy":-7},{"dx":-7,"dy":-4},{"dx":-2,"dy":-2},{"dx":-6,"dy":-4},{"dx":-1,"dy":-1},{"dx":0,"dy":-1},{"dx":-1,"dy":0},{"dx":-1,"dy":-1},{"dx":0,"dy":0},{"dx":-3,"dy":0},{"dx":-6,"dy":5},{"dx":-5,"dy":6},{"dx":-11,"dy":16},{"dx":-3,"dy":10},{"dx":-2,"dy":1},{"dx":-2,"dy":9},{"dx":-3,"dy":8},{"dx":0,"dy":1},{"dx":0,"dy":18},{"dx":2,"dy":11},{"dx":3,"dy":8},{"dx":5,"dy":8},{"dx":6,"dy":5},{"dx":7,"dy":4},{"dx":14,"dy":6},{"dx":9,"dy":3},{"dx":7,"dy":1},{"dx":9,"dy":2},{"dx":21,"dy":1},{"dx":18,"dy":1},{"dx":16,"dy":0},{"dx":8,"dy":0},{"dx":9,"dy":0},{"dx":10,"dy":-1},{"dx":11,"dy":-2},{"dx":9,"dy":0},{"dx":9,"dy":-3},{"dx":7,"dy":-2},{"dx":7,"dy":-4},{"dx":6,"dy":-4},{"dx":1,"dy":0},{"dx":2,"dy":-2},{"dx":5,"dy":-5},{"dx":1,"dy":-1},{"dx":4,"dy":-6},{"dx":3,"dy":-10},{"dx":1,"dy":-10},{"dx":0,"dy":-10},{"dx":-1,"dy":-8},{"dx":0,"dy":-2},{"dx":-4,"dy":-7},{"dx":-7,"dy":-10},{"dx":-1,"dy":0},{"dx":-4,"dy":-5},{"dx":-8,"dy":-6},{"dx":-9,"dy":-3},{"dx":-6,"dy":0},{"dx":-10,"dy":0},{"dx":-10,"dy":0},{"dx":-1,"dy":0},{"dx":-16,"dy":8},{"dx":-5,"dy":7},{"dx":-5,"dy":7},{"dx":-3,"dy":7},{"dx":-3,"dy":7},{"dx":0,"dy":0},{"dx":-1,"dy":2},{"dx":-2,"dy":2},{"dx":-1,"dy":2},{"dx":-3,"dy":2},{"dx":0,"dy":2},{"dx":-2,"dy":0},{"dx":-2,"dy":1},{"dx":-3,"dy":1},{"dx":-1,"dy":0},{"dx":-8,"dy":0},{"dx":-8,"dy":-3},{"dx":0,"dy":-1},{"dx":-3,"dy":-1},{"dx":-2,"dy":-1},{"dx":-1,"dy":-1},{"dx":-2,"dy":-4},{"dx":-1,"dy":-2},{"dx":-1,"dy":-2},{"dx":-3,"dy":-6},{"dx":-1,"dy":-11},{"dx":-1,"dy":0},{"dx":0,"dy":-3},{"dx":-1,"dy":-5},{"dx":0,"dy":-2},{"dx":0,"dy":-2},{"dx":0,"dy":-3},{"dx":0,"dy":-1},{"dx":0,"dy":-2},{"dx":0,"dy":-1},{"dx":1,"dy":-1},{"dx":1,"dy":-1},{"dx":1,"dy":-2},{"dx":1,"dy":-2},{"dx":6,"dy":-5},{"dx":1,"dy":-3},{"dx":0,"dy":-2},{"dx":2,"dy":-2},{"dx":1,"dy":-3},{"dx":2,"dy":-7},{"dx":0,"dy":-2},{"dx":0,"dy":-9},{"dx":-4,"dy":-9},{"dx":-1,"dy":-2},{"dx":-4,"dy":-7},{"dx":-7,"dy":-5},{"dx":-5,"dy":-5},{"dx":-6,"dy":-7},{"dx":-1,"dy":-2},{"dx":-6,"dy":-5},{"dx":-8,"dy":-8},{"dx":-5,"dy":-3},{"dx":-6,"dy":-6},{"dx":-8,"dy":-6},{"dx":-6,"dy":-5},{"dx":-2,"dy":-1},{"dx":-3,"dy":-2},{"dx":-1,"dy":-1},{"dx":-6,"dy":-3},{"dx":-9,"dy":-4},{"dx":-1,"dy":0},{"dx":-8,"dy":-2},{"dx":-2,"dy":0},{"dx":-2,"dy":0},{"dx":-2,"dy":0},{"dx":-1,"dy":0},{"dx":-2,"dy":0},{"dx":0,"dy":1},{"dx":0,"dy":0},{"dx":0,"dy":0},{"dx":-1,"dy":1},{"dx":0,"dy":0},{"dx":0,"dy":1},{"dx":4,"dy":7},{"dx":5,"dy":5},{"dx":0,"dy":1},{"dx":7,"dy":5},{"dx":6,"dy":4},{"dx":8,"dy":6},{"dx":6,"dy":4},{"dx":7,"dy":4},{"dx":7,"dy":5},{"dx":7,"dy":3},{"dx":1,"dy":1},{"dx":6,"dy":4},{"dx":0,"dy":1},{"dx":7,"dy":4},{"dx":0,"dy":0},{"dx":7,"dy":4},{"dx":1,"dy":1},{"dx":6,"dy":6},{"dx":6,"dy":7},{"dx":5,"dy":8},{"dx":1,"dy":1},{"dx":4,"dy":6},{"dx":1,"dy":0},{"dx":7,"dy":6},{"dx":0,"dy":1},{"dx":5,"dy":4},{"dx":7,"dy":5},{"dx":0,"dy":2},{"dx":9,"dy":6},{"dx":4,"dy":4},{"dx":7,"dy":6},{"dx":2,"dy":1},{"dx":1,"dy":1},{"dx":1,"dy":1},{"dx":7,"dy":6},{"dx":6,"dy":4},{"dx":6,"dy":6},{"dx":8,"dy":5},{"dx":6,"dy":6},{"dx":7,"dy":5},{"dx":5,"dy":3},{"dx":7,"dy":7},{"dx":0,"dy":1},{"dx":1,"dy":1},{"dx":5,"dy":8},{"dx":1,"dy":1},{"dx":4,"dy":8},{"dx":1,"dy":2},{"dx":4,"dy":6},{"dx":3,"dy":10},{"dx":2,"dy":8},{"dx":0,"dy":0},{"dx":1,"dy":2},{"dx":1,"dy":11},{"dx":0,"dy":0},{"dx":0,"dy":1},{"dx":0,"dy":11},{"dx":-2,"dy":7},{"dx":-3,"dy":7},{"dx":-1,"dy":2},{"dx":-3,"dy":6},{"dx":-1,"dy":1},{"dx":-2,"dy":2},{"dx":-5,"dy":4},{"dx":-2,"dy":1},{"dx":-7,"dy":2},{"dx":-8,"dy":0},{"dx":-1,"dy":0},{"dx":-8,"dy":0},{"dx":-9,"dy":-2},{"dx":-7,"dy":-2},{"dx":-8,"dy":-4},{"dx":0,"dy":-1},{"dx":-6,"dy":-3},{"dx":-7,"dy":-5},{"dx":-7,"dy":-4},{"dx":-6,"dy":-5},{"dx":-6,"dy":-5},{"dx":-9,"dy":-5},{"dx":-2,"dy":-1},{"dx":-8,"dy":-6},{"dx":-5,"dy":-6},{"dx":0,"dy":-1},{"dx":-2,"dy":-10},{"dx":0,"dy":-2},{"dx":0,"dy":-8},{"dx":0,"dy":-10},{"dx":0,"dy":-2},{"dx":1,"dy":-8},{"dx":3,"dy":-10},{"dx":5,"dy":-7},{"dx":6,"dy":-6},{"dx":7,"dy":-4},{"dx":7,"dy":-4},{"dx":1,"dy":-1},{"dx":7,"dy":-4},{"dx":9,"dy":-4},{"dx":1,"dy":0},{"dx":7,"dy":-2},{"dx":8,"dy":0},{"dx":7,"dy":-1},{"dx":1,"dy":0},{"dx":9,"dy":1},{"dx":0,"dy":0},{"dx":4,"dy":0},{"dx":7,"dy":1},{"dx":1,"dy":0},{"dx":7,"dy":0},{"dx":2,"dy":0},{"dx":1,"dy":0},{"dx":2,"dy":-2},{"dx":0,"dy":-2},{"dx":1,"dy":-2},{"dx":3,"dy":-10},{"dx":0,"dy":-1},{"dx":0,"dy":-1},{"dx":0,"dy":-10},{"dx":0,"dy":-2},{"dx":0,"dy":-2},{"dx":-1,"dy":-4},{"dx":-7,"dy":-6},{"dx":-2,"dy":0},{"dx":-16,"dy":-2},{"dx":-8,"dy":0},{"dx":-1,"dy":0},{"dx":-8,"dy":0},{"dx":-6,"dy":3},{"dx":-8,"dy":5},{"dx":-8,"dy":4},{"dx":0,"dy":1},{"dx":-7,"dy":5},{"dx":-1,"dy":1},{"dx":-5,"dy":5},{"dx":0,"dy":1},{"dx":-6,"dy":6},{"dx":-1,"dy":1},{"dx":-2,"dy":7},{"dx":-3,"dy":11},{"dx":0,"dy":2},{"dx":1,"dy":9},{"dx":5,"dy":7},{"dx":6,"dy":6},{"dx":8,"dy":6},{"dx":11,"dy":7},{"dx":2,"dy":1},{"dx":7,"dy":5},{"dx":7,"dy":3},{"dx":6,"dy":4},{"dx":2,"dy":1},{"dx":6,"dy":3},{"dx":2,"dy":1},{"dx":5,"dy":4},{"dx":2,"dy":1},{"dx":5,"dy":5},{"dx":5,"dy":6},{"dx":4,"dy":6},{"dx":1,"dy":1},{"dx":0,"dy":2},{"dx":5,"dy":6},{"dx":1,"dy":1},{"dx":3,"dy":6},{"dx":4,"dy":8},{"dx":2,"dy":8},{"dx":0,"dy":2},{"dx":1,"dy":6},{"dx":3,"dy":10},{"dx":0,"dy":2},{"dx":0,"dy":2},{"dx":0,"dy":4},{"dx":0,"dy":2},{"dx":0,"dy":1},{"dx":0,"dy":2},{"dx":0,"dy":0},{"dx":0,"dy":1},{"dx":0,"dy":3},{"dx":-1,"dy":2},{"dx":-1,"dy":2},{"dx":-4,"dy":7},{"dx":-5,"dy":3},{"dx":-8,"dy":2},{"dx":-23,"dy":2},{"dx":-9,"dy":0},{"dx":-6,"dy":-1},{"dx":-11,"dy":-5},{"dx":-2,"dy":0},{"dx":-7,"dy":-4},{"dx":-9,"dy":-4},{"dx":-6,"dy":-2},{"dx":-1,"dy":-1},{"dx":-7,"dy":-1},{"dx":-9,"dy":-3},{"dx":-1,"dy":0},{"dx":-3,"dy":-1},{"dx":-6,"dy":-3},{"dx":-2,"dy":-1},{"dx":-8,"dy":-4},{"dx":-1,"dy":-1},{"dx":-2,"dy":-1},{"dx":-8,"dy":-3},{"dx":-10,"dy":-3},{"dx":0,"dy":0},{"dx":-8,"dy":-5},{"dx":-9,"dy":-2},{"dx":-3,"dy":-1},{"dx":-7,"dy":-1},{"dx":-9,"dy":-1},{"dx":0,"dy":0},{"dx":-9,"dy":1},{"dx":-2,"dy":0},{"dx":-6,"dy":3},{"dx":-3,"dy":1},{"dx":-1,"dy":1},{"dx":0,"dy":1},{"dx":-1,"dy":2},{"dx":0,"dy":1},{"dx":3,"dy":5},{"dx":16,"dy":10},{"dx":7,"dy":3},{"dx":7,"dy":2},{"dx":9,"dy":3},{"dx":7,"dy":2},{"dx":9,"dy":3},{"dx":10,"dy":0},{"dx":0,"dy":0},{"dx":7,"dy":0},{"dx":9,"dy":-2},{"dx":1,"dy":0},{"dx":9,"dy":-4},{"dx":14,"dy":-4},{"dx":2,"dy":-1},{"dx":8,"dy":-4},{"dx":7,"dy":-3},{"dx":6,"dy":-4},{"dx":1,"dy":-1},{"dx":5,"dy":-3},{"dx":8,"dy":-7},{"dx":6,"dy":-6},{"dx":8,"dy":-7},{"dx":8,"dy":-7},{"dx":6,"dy":-5},{"dx":7,"dy":-8},{"dx":5,"dy":-6},{"dx":2,"dy":0},{"dx":5,"dy":-5},{"dx":2,"dy":-2},{"dx":1,"dy":-1},{"dx":4,"dy":-6},{"dx":3,"dy":-11},{"dx":0,"dy":0},{"dx":2,"dy":-8},{"dx":2,"dy":-11},{"dx":0,"dy":0},{"dx":2,"dy":-7},{"dx":0,"dy":-9},{"dx":0,"dy":-3},{"dx":1,"dy":-9},{"dx":-1,"dy":-8},{"dx":-1,"dy":-10},{"dx":-1,"dy":-1},{"dx":-5,"dy":-9},{"dx":0,"dy":-1},{"dx":-4,"dy":-8},{"dx":-2,"dy":-1},{"dx":-4,"dy":-5},{"dx":-2,"dy":-1},{"dx":-8,"dy":-4},{"dx":-7,"dy":-3},{"dx":-9,"dy":-3},{"dx":-7,"dy":-2},{"dx":-2,"dy":0},{"dx":-9,"dy":-2},{"dx":-1,"dy":-1},{"dx":-1,"dy":-1},{"dx":-3,"dy":0},{"dx":-8,"dy":-4},{"dx":-6,"dy":-2},{"dx":-2,"dy":0},{"dx":-9,"dy":-1},{"dx":-9,"dy":0},{"dx":0,"dy":0},{"dx":-9,"dy":-3},{"dx":-1,"dy":0},{"dx":-2,"dy":0},{"dx":-3,"dy":-1},{"dx":-2,"dy":0}],"trial_type":"plugin-moving-dots-2","trial_index":20,"plugin_version":"0.0.1","time_elapsed":114497},{"task":"fixation","rt":632,"stimulus":"<div style=\"font-size:60px;\">+</div>","response":" ","trial_type":"html-keyboard-response","trial_index":21,"plugin_version":"2.1.0","time_elapsed":115131},{"task":"movingdots","control_change":0,"mouse_data":[{"dx":0,"dy":0},{"dx":1,"dy":-1},{"dx":7,"dy":-3},{"dx":8,"dy":-5},{"dx":7,"dy":-4},{"dx":1,"dy":-1},{"dx":8,"dy":-4},{"dx":6,"dy":-5},{"dx":1,"dy":-1},{"dx":5,"dy":-3},{"dx":2,"dy":0},{"dx":0,"dy":0},{"dx":1,"dy":-1},{"dx":6,"dy":-6},{"dx":0,"dy":-1},{"dx":5,"dy":-7},{"dx":6,"dy":-7},{"dx":6,"dy":-5},{"dx":5,"dy":-4},{"dx":1,"dy":0},{"dx":1,"dy":-2},{"dx":1,"dy":0},{"dx":0,"dy":0},{"dx":-1,"dy":-1},{"dx":-13,"dy":-9},{"dx":-2,"dy":-1},{"dx":-7,"dy":-2},{"dx":-9,"dy":-1},{"dx":-2,"dy":0},{"dx":-8,"dy":1},{"dx":-13,"dy":7},{"dx":-9,"dy":4},{"dx":-8,"dy":3},{"dx":-8,"dy":6},{"dx":-1,"dy":1},{"dx":-6,"dy":4},{"dx":-8,"dy":5},{"dx":-1,"dy":0},{"dx":-6,"dy":3},{"dx":-6,"dy":4},{"dx":-8,"dy":6},{"dx":-1,"dy":0},{"dx":-7,"dy":4},{"dx":-6,"dy":3},{"dx":-7,"dy":5},{"dx":-1,"dy":1},{"dx":-6,"dy":5},{"dx":-1,"dy":1},{"dx":-4,"dy":8},{"dx":-3,"dy":8},{"dx":-1,"dy":8},{"dx":0,"dy":11},{"dx":0,"dy":9},{"dx":1,"dy":10},{"dx":3,"dy":8},{"dx":4,"dy":9},{"dx":1,"dy":2},{"dx":6,"dy":6},{"dx":6,"dy":6},{"dx":10,"dy":4},{"dx":12,"dy":3},{"dx":17,"dy":3},{"dx":2,"dy":0},{"dx":10,"dy":0},{"dx":12,"dy":-1},{"dx":8,"dy":-2},{"dx":8,"dy":-2},{"dx":9,"dy":-3},{"dx":5,"dy":-4},{"dx":8,"dy":-4},{"dx":6,"dy":-5},{"dx":2,"dy":-2},{"dx":1,"dy":-1},{"dx":7,"dy":-6},{"dx":1,"dy":-2},{"dx":6,"dy":-5},{"dx":1,"dy":-2},{"dx":3,"dy":-7},{"dx":1,"dy":-2},{"dx":2,"dy":-19},{"dx":-1,"dy":-9},{"dx":0,"dy":-1},{"dx":-3,"dy":-10},{"dx":-1,"dy":-3},{"dx":-2,"dy":-2},{"dx":-7,"dy":-6},{"dx":-1,"dy":-1},{"dx":-1,"dy":-1},{"dx":-8,"dy":-2},{"dx":-2,"dy":-1},{"dx":-6,"dy":-2},{"dx":-8,"dy":0},{"dx":-8,"dy":0},{"dx":-11,"dy":2},{"dx":-13,"dy":4},{"dx":-9,"dy":4},{"dx":-8,"dy":4},{"dx":-10,"dy":5},{"dx":-7,"dy":3},{"dx":-7,"dy":3},{"dx":-12,"dy":8},{"dx":-6,"dy":6},{"dx":-3,"dy":5},{"dx":-4,"dy":6},{"dx":-4,"dy":8},{"dx":-6,"dy":9},{"dx":-6,"dy":7},{"dx":0,"dy":0},{"dx":-5,"dy":5},{"dx":-7,"dy":5},{"dx":0,"dy":1},{"dx":-2,"dy":0},{"dx":-8,"dy":1},{"dx":-2,"dy":0},{"dx":-7,"dy":-3},{"dx":-7,"dy":-4},{"dx":-5,"dy":-7},{"dx":-3,"dy":-5},{"dx":-5,"dy":-10},{"dx":-1,"dy":-1},{"dx":-1,"dy":-2},{"dx":-1,"dy":-4},{"dx":-1,"dy":-8},{"dx":0,"dy":-2},{"dx":2,"dy":-8},{"dx":4,"dy":-9},{"dx":6,"dy":-8},{"dx":11,"dy":-10},{"dx":8,"dy":-5},{"dx":11,"dy":-5},{"dx":9,"dy":-4},{"dx":6,"dy":-3},{"dx":8,"dy":-1},{"dx":14,"dy":0},{"dx":8,"dy":1},{"dx":8,"dy":3},{"dx":1,"dy":0},{"dx":10,"dy":3},{"dx":7,"dy":4},{"dx":16,"dy":8},{"dx":5,"dy":3},{"dx":2,"dy":1},{"dx":7,"dy":6},{"dx":18,"dy":11},{"dx":12,"dy":7},{"dx":12,"dy":7},{"dx":7,"dy":5},{"dx":8,"dy":7},{"dx":8,"dy":8},{"dx":7,"dy":7},{"dx":7,"dy":4},{"dx":8,"dy":5},{"dx":9,"dy":2},{"dx":9,"dy":3},{"dx":8,"dy":2},{"dx":7,"dy":3},{"dx":1,"dy":0},{"dx":9,"dy":0},{"dx":9,"dy":0},{"dx":6,"dy":0},{"dx":9,"dy":0},{"dx":1,"dy":0},{"dx":2,"dy":-1},{"dx":7,"dy":-2},{"dx":2,"dy":-2},{"dx":2,"dy":-9},{"dx":1,"dy":-11},{"dx":1,"dy":-16},{"dx":0,"dy":-8},{"dx":0,"dy":-2},{"dx":-1,"dy":-11},{"dx":-4,"dy":-9},{"dx":-5,"dy":-9},{"dx":-6,"dy":-6},{"dx":-1,"dy":0},{"dx":-7,"dy":-7},{"dx":-5,"dy":-5},{"dx":-8,"dy":-5},{"dx":-2,"dy":-1},{"dx":-7,"dy":-3},{"dx":-2,"dy":-2},{"dx":-8,"dy":-1},{"dx":-10,"dy":0},{"dx":-8,"dy":0},{"dx":-1,"dy":0},{"dx":-10,"dy":0},{"dx":-8,"dy":0},{"dx":-2,"dy":0},{"dx":-6,"dy":0},{"dx":-2,"dy":-1},{"dx":-3,"dy":-1},{"dx":-2,"dy":-2},{"dx":-1,"dy":-1},{"dx":-5,"dy":-6},{"dx":-1,"dy":-3},{"dx":-3,"dy":-7},{"dx":0,"dy":-3},{"dx":0,"dy":-4},{"dx":-1,"dy":-8},{"dx":-1,"dy":-2},{"dx":0,"dy":-3},{"dx":0,"dy":-3},{"dx":-1,"dy":-2},{"dx":0,"dy":-2},{"dx":0,"dy":-1},{"dx":0,"dy":-1},{"dx":0,"dy":0},{"dx":0,"dy":0},{"dx":0,"dy":0},{"dx":0,"dy":0},{"dx":0,"dy":0},{"dx":-1,"dy":-1},{"dx":-1,"dy":-1},{"dx":-6,"dy":0},{"dx":-8,"dy":1},{"dx":-15,"dy":7},{"dx":0,"dy":1},{"dx":-6,"dy":4},{"dx":-9,"dy":5},{"dx":-7,"dy":2},{"dx":0,"dy":1},{"dx":-2,"dy":1},{"dx":-6,"dy":3},{"dx":-2,"dy":1},{"dx":-5,"dy":3},{"dx":-2,"dy":1},{"dx":-3,"dy":2},{"dx":-2,"dy":1},{"dx":-3,"dy":2},{"dx":-2,"dy":0},{"dx":-1,"dy":1},{"dx":0,"dy":0},{"dx":-2,"dy":2},{"dx":-6,"dy":7},{"dx":-5,"dy":4},{"dx":-2,"dy":2},{"dx":-5,"dy":5},{"dx":-2,"dy":1},{"dx":-1,"dy":2},{"dx":-5,"dy":6},{"dx":-8,"dy":8},{"dx":-1,"dy":0},{"dx":-6,"dy":6},{"dx":0,"dy":0},{"dx":0,"dy":1},{"dx":0,"dy":0},{"dx":-2,"dy":1},{"dx":-6,"dy":4},{"dx":-1,"dy":1},{"dx":-6,"dy":3},{"dx":-7,"dy":6},{"dx":0,"dy":0},{"dx":-1,"dy":1},{"dx":-1,"dy":0},{"dx":-2,"dy":2},{"dx":-1,"dy":1},{"dx":-2,"dy":1},{"dx":-2,"dy":3},{"dx":-2,"dy":1},{"dx":-1,"dy":1},{"dx":0,"dy":0},{"dx":-1,"dy":1},{"dx":0,"dy":0},{"dx":0,"dy":0},{"dx":0,"dy":0},{"dx":0,"dy":0},{"dx":0,"dy":0},{"dx":-1,"dy":0},{"dx":0,"dy":0},{"dx":0,"dy":0},{"dx":0,"dy":1},{"dx":0,"dy":0},{"dx":0,"dy":0},{"dx":0,"dy":0},{"dx":0,"dy":0},{"dx":0,"dy":0},{"dx":17,"dy":4},{"dx":13,"dy":0},{"dx":7,"dy":0},{"dx":7,"dy":0},{"dx":2,"dy":0},{"dx":6,"dy":0},{"dx":3,"dy":0},{"dx":7,"dy":0},{"dx":1,"dy":0},{"dx":2,"dy":0},{"dx":2,"dy":0},{"dx":0,"dy":0},{"dx":3,"dy":0},{"dx":6,"dy":0},{"dx":7,"dy":0},{"dx":9,"dy":0},{"dx":0,"dy":0},{"dx":1,"dy":0},{"dx":7,"dy":0},{"dx":2,"dy":0},{"dx":6,"dy":2},{"dx":3,"dy":0},{"dx":8,"dy":1},{"dx":0,"dy":0},{"dx":3,"dy":0},{"dx":1,"dy":1},{"dx":9,"dy":2},{"dx":10,"dy":2},{"dx":8,"dy":2},{"dx":2,"dy":1},{"dx":7,"dy":1},{"dx":2,"dy":0},{"dx":1,"dy":0},{"dx":8,"dy":2},{"dx":0,"dy":0},{"dx":2,"dy":1},{"dx":3,"dy":1},{"dx":1,"dy":1},{"dx":1,"dy":1},{"dx":1,"dy":1},{"dx":4,"dy":9},{"dx":0,"dy":0},{"dx":0,"dy":1},{"dx":0,"dy":1},{"dx":0,"dy":3},{"dx":-1,"dy":8},{"dx":-1,"dy":1},{"dx":-1,"dy":2},{"dx":-2,"dy":2},{"dx":-6,"dy":6},{"dx":-6,"dy":2},{"dx":-8,"dy":0},{"dx":-8,"dy":0},{"dx":-8,"dy":0},{"dx":-2,"dy":0},{"dx":-3,"dy":-2},{"dx":-6,"dy":-2},{"dx":-2,"dy":0},{"dx":-10,"dy":-3},{"dx":0,"dy":0},{"dx":-2,"dy":-1},{"dx":-9,"dy":-1},{"dx":-2,"dy":-1},{"dx":-6,"dy":-2},{"dx":-2,"dy":0},{"dx":-3,"dy":0},{"dx":-7,"dy":0},{"dx":-2,"dy":0},{"dx":-8,"dy":0},{"dx":-1,"dy":0},{"dx":-3,"dy":0},{"dx":-2,"dy":0},{"dx":-1,"dy":0},{"dx":-3,"dy":0},{"dx":-3,"dy":1},{"dx":-4,"dy":0},{"dx":-1,"dy":1},{"dx":-7,"dy":4},{"dx":-2,"dy":0},{"dx":-7,"dy":5},{"dx":-5,"dy":3},{"dx":-6,"dy":5},{"dx":-2,"dy":0},{"dx":-2,"dy":1},{"dx":-2,"dy":2},{"dx":-2,"dy":2},{"dx":-2,"dy":1},{"dx":-1,"dy":1},{"dx":-2,"dy":1},{"dx":0,"dy":0},{"dx":0,"dy":0},{"dx":0,"dy":1},{"dx":-1,"dy":2},{"dx":0,"dy":1},{"dx":0,"dy":2},{"dx":2,"dy":1},{"dx":1,"dy":1},{"dx":10,"dy":4},{"dx":0,"dy":0},{"dx":9,"dy":0},{"dx":9,"dy":-2},{"dx":6,"dy":-1},{"dx":9,"dy":-3},{"dx":7,"dy":-3},{"dx":1,"dy":-2},{"dx":1,"dy":0},{"dx":8,"dy":-3},{"dx":1,"dy":0},{"dx":2,"dy":-1},{"dx":2,"dy":-1},{"dx":3,"dy":-2},{"dx":2,"dy":0},{"dx":7,"dy":-4},{"dx":0,"dy":-2},{"dx":5,"dy":-7},{"dx":1,"dy":-2},{"dx":3,"dy":-11},{"dx":0,"dy":0},{"dx":0,"dy":-11},{"dx":0,"dy":-8},{"dx":0,"dy":-1},{"dx":-1,"dy":-7},{"dx":-2,"dy":-11},{"dx":-1,"dy":-2},{"dx":-2,"dy":-8},{"dx":0,"dy":-2},{"dx":0,"dy":-2},{"dx":-2,"dy":-4},{"dx":0,"dy":-2},{"dx":-2,"dy":-3},{"dx":-1,"dy":-4},{"dx":-2,"dy":-3},{"dx":-1,"dy":-3},{"dx":-1,"dy":-2},{"dx":-1,"dy":-3},{"dx":-5,"dy":-8},{"dx":0,"dy":0},{"dx":-7,"dy":-7},{"dx":-1,"dy":-1},{"dx":-6,"dy":-6},{"dx":-2,"dy":-2},{"dx":-6,"dy":-4},{"dx":-8,"dy":-5},{"dx":-7,"dy":-5},{"dx":-2,"dy":-1},{"dx":-1,"dy":0},{"dx":-10,"dy":-3},{"dx":0,"dy":0},{"dx":-2,"dy":-1},{"dx":-9,"dy":0},{"dx":-7,"dy":0},{"dx":-6,"dy":0},{"dx":-1,"dy":0},{"dx":-2,"dy":0},{"dx":-2,"dy":1},{"dx":-3,"dy":1},{"dx":-1,"dy":1},{"dx":-1,"dy":1},{"dx":-5,"dy":6},{"dx":-1,"dy":1},{"dx":-3,"dy":6},{"dx":-1,"dy":3},{"dx":0,"dy":1},{"dx":-1,"dy":1},{"dx":0,"dy":2},{"dx":-2,"dy":10},{"dx":0,"dy":1},{"dx":0,"dy":9},{"dx":0,"dy":10},{"dx":0,"dy":1},{"dx":0,"dy":2},{"dx":0,"dy":1},{"dx":1,"dy":1},{"dx":5,"dy":6},{"dx":4,"dy":5}],"trial_type":"plugin-moving-dots-2","trial_index":22,"plugin_version":"0.0.1","time_elapsed":122647},{"task":"fixation","rt":960,"stimulus":"<div style=\"font-size:60px;\">+</div>","response":" ","trial_type":"html-keyboard-response","trial_index":23,"plugin_version":"2.1.0","time_elapsed":123609},{"task":"movingdots","control_change":0,"mouse_data":[{"dx":0,"dy":0},{"dx":0,"dy":0},{"dx":0,"dy":0},{"dx":0,"dy":0},{"dx":0,"dy":0},{"dx":0,"dy":0},{"dx":0,"dy":0},{"dx":0,"dy":0},{"dx":0,"dy":0},{"dx":0,"dy":0},{"dx":0,"dy":0},{"dx":0,"dy":0},{"dx":0,"dy":0},{"dx":0,"dy":0},{"dx":0,"dy":0},{"dx":0,"dy":0},{"dx":0,"dy":0},{"dx":0,"dy":0},{"dx":0,"dy":0},{"dx":0,"dy":0},{"dx":0,"dy":0},{"dx":0,"dy":0},{"dx":0,"dy":0},{"dx":0,"dy":0},{"dx":0,"dy":0},{"dx":0,"dy":0},{"dx":0,"dy":0},{"dx":0,"dy":0},{"dx":0,"dy":0},{"dx":0,"dy":0},{"dx":0,"dy":0},{"dx":0,"dy":0},{"dx":0,"dy":0},{"dx":0,"dy":0},{"dx":0,"dy":0},{"dx":4,"dy":-5},{"dx":7,"dy":-6},{"dx":1,"dy":0},{"dx":5,"dy":-4},{"dx":0,"dy":-1},{"dx":0,"dy":0},{"dx":1,"dy":-1},{"dx":0,"dy":0},{"dx":0,"dy":0},{"dx":0,"dy":0},{"dx":0,"dy":0},{"dx":0,"dy":0},{"dx":9,"dy":0},{"dx":6,"dy":2},{"dx":8,"dy":4},{"dx":7,"dy":4},{"dx":2,"dy":1},{"dx":1,"dy":2},{"dx":1,"dy":0},{"dx":0,"dy":0},{"dx":0,"dy":1},{"dx":1,"dy":1},{"dx":1,"dy":0},{"dx":0,"dy":0},{"dx":1,"dy":0},{"dx":2,"dy":0},{"dx":4,"dy":-7},{"dx":1,"dy":-1},{"dx":4,"dy":-19},{"dx":0,"dy":-11},{"dx":-1,"dy":-1},{"dx":-3,"dy":-11},{"dx":-4,"dy":-9},{"dx":-4,"dy":-7},{"dx":-6,"dy":-9},{"dx":-5,"dy":-6},{"dx":-6,"dy":-6},{"dx":-6,"dy":-5},{"dx":-8,"dy":-4},{"dx":-7,"dy":-3},{"dx":-9,"dy":-3},{"dx":-11,"dy":-4},{"dx":-8,"dy":-1},{"dx":-7,"dy":-1},{"dx":-7,"dy":0},{"dx":-7,"dy":0},{"dx":-15,"dy":3},{"dx":-8,"dy":3},{"dx":-12,"dy":4},{"dx":-10,"dy":4},{"dx":-5,"dy":3},{"dx":-2,"dy":1},{"dx":-2,"dy":1},{"dx":-1,"dy":1},{"dx":0,"dy":0},{"dx":0,"dy":0},{"dx":-1,"dy":1},{"dx":0,"dy":8},{"dx":8,"dy":13},{"dx":5,"dy":5},{"dx":7,"dy":5},{"dx":10,"dy":5},{"dx":8,"dy":4},{"dx":12,"dy":5},{"dx":21,"dy":13},{"dx":7,"dy":5},{"dx":7,"dy":4},{"dx":10,"dy":4},{"dx":7,"dy":2},{"dx":9,"dy":4},{"dx":15,"dy":5},{"dx":6,"dy":4},{"dx":6,"dy":6},{"dx":8,"dy":5},{"dx":5,"dy":5},{"dx":0,"dy":0},{"dx":1,"dy":1},{"dx":2,"dy":0},{"dx":0,"dy":1},{"dx":0,"dy":1},{"dx":1,"dy":3},{"dx":2,"dy":7},{"dx":-1,"dy":7},{"dx":-6,"dy":8},{"dx":-5,"dy":6},{"dx":-7,"dy":8},{"dx":-7,"dy":6},{"dx":-8,"dy":2},{"dx":-19,"dy":5},{"dx":-12,"dy":1},{"dx":-8,"dy":0},{"dx":-1,"dy":0},{"dx":-9,"dy":-2},{"dx":-9,"dy":-5},{"dx":-12,"dy":-8},{"dx":-6,"dy":-4},{"dx":-2,"dy":-2},{"dx":-6,"dy":-4},{"dx":-8,"dy":-7},{"dx":-5,"dy":-5},{"dx":-1,"dy":-1},{"dx":-5,"dy":-6},{"dx":-1,"dy":-2},{"dx":-3,"dy":-8},{"dx":-4,"dy":-10},{"dx":-4,"dy":-8},{"dx":-1,"dy":-2},{"dx":-1,"dy":-2},{"dx":0,"dy":-2},{"dx":-1,"dy":-3},{"dx":0,"dy":-11},{"dx":0,"dy":-2},{"dx":0,"dy":-1},{"dx":4,"dy":-9},{"dx":6,"dy":-5},{"dx":5,"dy":-5},{"dx":15,"dy":-8},{"dx":7,"dy":-2},{"dx":1,"dy":-1},{"dx":8,"dy":-2},{"dx":1,"dy":0},{"dx":8,"dy":-1},{"dx":8,"dy":1},{"dx":7,"dy":3},{"dx":8,"dy":4},{"dx":7,"dy":5},{"dx":8,"dy":4},{"dx":1,"dy":2},{"dx":7,"dy":2},{"dx":8,"dy":4},{"dx":1,"dy":0},{"dx":9,"dy":5},{"dx":6,"dy":3},{"dx":2,"dy":1},{"dx":1,"dy":1},{"dx":1,"dy":0},{"dx":0,"dy":1},{"dx":0,"dy":0},{"dx":0,"dy":0},{"dx":1,"dy":0},{"dx":3,"dy":0},{"dx":7,"dy":0},{"dx":1,"dy":-1},{"dx":2,"dy":-1},{"dx":1,"dy":0},{"dx":1,"dy":0},{"dx":0,"dy":-1},{"dx":2,"dy":-2},{"dx":2,"dy":-2},{"dx":1,"dy":-2},{"dx":1,"dy":-2},{"dx":1,"dy":-1},{"dx":0,"dy":-2},{"dx":0,"dy":-2},{"dx":0,"dy":-2},{"dx":-1,"dy":-2},{"dx":-4,"dy":-9},{"dx":-2,"dy":-2},{"dx":-5,"dy":-6},{"dx":-8,"dy":-6},{"dx":-1,"dy":0},{"dx":-7,"dy":-4},{"dx":-9,"dy":-2},{"dx":-2,"dy":-1},{"dx":-6,"dy":-1},{"dx":-8,"dy":0},{"dx":-10,"dy":0},{"dx":0,"dy":0},{"dx":-8,"dy":0},{"dx":-6,"dy":3},{"dx":-1,"dy":0},{"dx":-7,"dy":2},{"dx":-7,"dy":2},{"dx":-1,"dy":0},{"dx":-3,"dy":2},{"dx":-1,"dy":0},{"dx":0,"dy":1},{"dx":-7,"dy":8},{"dx":-4,"dy":7},{"dx":-5,"dy":8},{"dx":-4,"dy":8},{"dx":-4,"dy":6},{"dx":-1,"dy":2},{"dx":0,"dy":2},{"dx":-3,"dy":10},{"dx":0,"dy":0},{"dx":-3,"dy":10},{"dx":-3,"dy":8},{"dx":0,"dy":0},{"dx":-2,"dy":4},{"dx":-1,"dy":1},{"dx":-1,"dy":1},{"dx":-1,"dy":3},{"dx":-1,"dy":1},{"dx":-2,"dy":2},{"dx":-7,"dy":4},{"dx":-1,"dy":0},{"dx":-2,"dy":0},{"dx":-8,"dy":2},{"dx":-7,"dy":0},{"dx":-2,"dy":0},{"dx":-2,"dy":-2},{"dx":-7,"dy":-2},{"dx":-2,"dy":-2},{"dx":-8,"dy":-4},{"dx":-6,"dy":-5},{"dx":-1,"dy":-1},{"dx":-5,"dy":-5},{"dx":-1,"dy":-2},{"dx":-1,"dy":-1},{"dx":-1,"dy":-3},{"dx":-2,"dy":-4},{"dx":0,"dy":-2},{"dx":-1,"dy":-2},{"dx":0,"dy":-1},{"dx":0,"dy":0},{"dx":0,"dy":0},{"dx":0,"dy":-1},{"dx":0,"dy":0},{"dx":8,"dy":4},{"dx":7,"dy":6},{"dx":5,"dy":6},{"dx":6,"dy":8},{"dx":3,"dy":9},{"dx":0,"dy":0},{"dx":1,"dy":1},{"dx":1,"dy":3},{"dx":5,"dy":6},{"dx":1,"dy":2},{"dx":4,"dy":7},{"dx":1,"dy":0},{"dx":1,"dy":1},{"dx":5,"dy":5},{"dx":1,"dy":0},{"dx":8,"dy":4},{"dx":2,"dy":0},{"dx":7,"dy":1},{"dx":7,"dy":0},{"dx":12,"dy":-1},{"dx":10,"dy":-1},{"dx":8,"dy":-1},{"dx":9,"dy":-1},{"dx":7,"dy":-2},{"dx":3,"dy":-1},{"dx":7,"dy":-3},{"dx":6,"dy":-2},{"dx":6,"dy":-3},{"dx":8,"dy":-4},{"dx":0,"dy":0},{"dx":6,"dy":-4},{"dx":8,"dy":-3},{"dx":7,"dy":-5},{"dx":6,"dy":-5},{"dx":6,"dy":-5},{"dx":7,"dy":-5},{"dx":1,"dy":-1},{"dx":6,"dy":-5},{"dx":5,"dy":-5},{"dx":1,"dy":0},{"dx":5,"dy":-4},{"dx":1,"dy":-1},{"dx":2,"dy":-1},{"dx":9,"dy":-2},{"dx":1,"dy":0},{"dx":6,"dy":0},{"dx":8,"dy":4},{"dx":8,"dy":6},{"dx":0,"dy":0},{"dx":6,"dy":7},{"dx":4,"dy":6},{"dx":0,"dy":0},{"dx":1,"dy":2},{"dx":0,"dy":3},{"dx":1,"dy":8},{"dx":0,"dy":1},{"dx":-4,"dy":7},{"dx":-1,"dy":1},{"dx":-9,"dy":5},{"dx":-9,"dy":3},{"dx":-8,"dy":0},{"dx":-8,"dy":0},{"dx":-10,"dy":0},{"dx":-1,"dy":0},{"dx":-6,"dy":-2},{"dx":-7,"dy":-5},{"dx":-6,"dy":-9},{"dx":-1,"dy":-1},{"dx":-4,"dy":-8},{"dx":-5,"dy":-7},{"dx":-1,"dy":0},{"dx":-1,"dy":-3},{"dx":0,"dy":-2},{"dx":-1,"dy":-2},{"dx":0,"dy":-10},{"dx":0,"dy":-2},{"dx":0,"dy":-10},{"dx":2,"dy":-10},{"dx":0,"dy":0},{"dx":1,"dy":-2},{"dx":1,"dy":-4},{"dx":1,"dy":-3},{"dx":2,"dy":-10},{"dx":0,"dy":-9},{"dx":0,"dy":0},{"dx":-1,"dy":-3},{"dx":-5,"dy":-8},{"dx":-6,"dy":-6},{"dx":-1,"dy":0},{"dx":-7,"dy":-3},{"dx":-7,"dy":-2},{"dx":-10,"dy":0},{"dx":-6,"dy":0},{"dx":-1,"dy":0},{"dx":-8,"dy":1},{"dx":-2,"dy":1},{"dx":-2,"dy":0},{"dx":0,"dy":1},{"dx":0,"dy":0},{"dx":-2,"dy":0},{"dx":-6,"dy":6},{"dx":-2,"dy":1},{"dx":-1,"dy":1},{"dx":-1,"dy":1},{"dx":-1,"dy":1},{"dx":0,"dy":1},{"dx":0,"dy":2},{"dx":12,"dy":9},{"dx":9,"dy":4},{"dx":8,"dy":4},{"dx":9,"dy":4},{"dx":7,"dy":2},{"dx":7,"dy":2},{"dx":12,"dy":4},{"dx":7,"dy":4},{"dx":6,"dy":2},{"dx":8,"dy":5},{"dx":1,"dy":1},{"dx":7,"dy":4},{"dx":7,"dy":5},{"dx":2,"dy":1},{"dx":7,"dy":4},{"dx":1,"dy":1},{"dx":2,"dy":1},{"dx":1,"dy":1},{"dx":0,"dy":3},{"dx":2,"dy":8},{"dx":-2,"dy":7},{"dx":-1,"dy":1},{"dx":-1,"dy":3},{"dx":-2,"dy":1},{"dx":-2,"dy":3},{"dx":-2,"dy":1},{"dx":-8,"dy":4},{"dx":0,"dy":0},{"dx":-7,"dy":3},{"dx":-2,"dy":1},{"dx":-3,"dy":0},{"dx":-7,"dy":4},{"dx":-8,"dy":3},{"dx":-1,"dy":0},{"dx":-8,"dy":0},{"dx":-9,"dy":0},{"dx":-7,"dy":0},{"dx":-13,"dy":0},{"dx":-7,"dy":-1},{"dx":-1,"dy":0},{"dx":-9,"dy":-4},{"dx":-7,"dy":-3},{"dx":-7,"dy":-6},{"dx":-9,"dy":-5},{"dx":-8,"dy":-5},{"dx":-6,"dy":-6},{"dx":-6,"dy":-4},{"dx":-6,"dy":-2},{"dx":-2,"dy":-1},{"dx":-2,"dy":0},{"dx":-2,"dy":0},{"dx":-2,"dy":0},{"dx":-7,"dy":1},{"dx":-6,"dy":5},{"dx":-1,"dy":1},{"dx":-6,"dy":6},{"dx":-5,"dy":4},{"dx":-1,"dy":2},{"dx":-6,"dy":6},{"dx":-1,"dy":2},{"dx":-1,"dy":2},{"dx":-1,"dy":4},{"dx":-1,"dy":2},{"dx":0,"dy":6},{"dx":0,"dy":3},{"dx":2,"dy":8},{"dx":5,"dy":6},{"dx":7,"dy":7},{"dx":6,"dy":3},{"dx":6,"dy":4},{"dx":8,"dy":4},{"dx":9,"dy":2},{"dx":7,"dy":0},{"dx":9,"dy":0},{"dx":8,"dy":-1},{"dx":8,"dy":-2},{"dx":12,"dy":-5},{"dx":2,"dy":-1},{"dx":7,"dy":-2},{"dx":7,"dy":-5},{"dx":1,"dy":0},{"dx":4,"dy":-4},{"dx":13,"dy":-9},{"dx":8,"dy":-4},{"dx":1,"dy":-1},{"dx":5,"dy":-4},{"dx":3,"dy":-2},{"dx":5,"dy":-6},{"dx":0,"dy":-2},{"dx":3,"dy":-9}],"trial_type":"plugin-moving-dots-2","trial_index":24,"plugin_version":"0.0.1","time_elapsed":131113},{"task":"fixation","rt":526,"stimulus":"<div style=\"font-size:60px;\">+</div>","response":" ","trial_type":"html-keyboard-response","trial_index":25,"plugin_version":"2.1.0","time_elapsed":131642},{"task":"movingdots","control_change":0,"mouse_data":[{"dx":0,"dy":0},{"dx":0,"dy":0},{"dx":0,"dy":0},{"dx":0,"dy":0},{"dx":0,"dy":0},{"dx":0,"dy":0},{"dx":-1,"dy":1},{"dx":-2,"dy":1},{"dx":-4,"dy":0},{"dx":0,"dy":0},{"dx":-1,"dy":0},{"dx":-9,"dy":0},{"dx":-8,"dy":0},{"dx":-1,"dy":0},{"dx":-2,"dy":0},{"dx":-8,"dy":-1},{"dx":-7,"dy":-2},{"dx":-1,"dy":-1},{"dx":-13,"dy":-9},{"dx":-7,"dy":-5},{"dx":-7,"dy":-5},{"dx":-7,"dy":-4},{"dx":-5,"dy":-3},{"dx":-8,"dy":-5},{"dx":-8,"dy":-6},{"dx":-8,"dy":-5},{"dx":-1,"dy":0},{"dx":-9,"dy":-3},{"dx":0,"dy":0},{"dx":-1,"dy":0},{"dx":0,"dy":0},{"dx":0,"dy":0},{"dx":0,"dy":0},{"dx":0,"dy":0},{"dx":0,"dy":0},{"dx":0,"dy":0},{"dx":16,"dy":-9},{"dx":9,"dy":-4},{"dx":10,"dy":-5},{"dx":8,"dy":-2},{"dx":0,"dy":0},{"dx":2,"dy":0},{"dx":7,"dy":-1},{"dx":8,"dy":1},{"dx":8,"dy":3},{"dx":10,"dy":3},{"dx":0,"dy":0},{"dx":9,"dy":2},{"dx":6,"dy":4},{"dx":0,"dy":0},{"dx":7,"dy":4},{"dx":8,"dy":4},{"dx":7,"dy":5},{"dx":1,"dy":1},{"dx":6,"dy":4},{"dx":7,"dy":5},{"dx":1,"dy":1},{"dx":6,"dy":4},{"dx":2,"dy":1},{"dx":6,"dy":5},{"dx":7,"dy":6},{"dx":8,"dy":7},{"dx":0,"dy":0},{"dx":0,"dy":1},{"dx":3,"dy":2},{"dx":1,"dy":1},{"dx":2,"dy":1},{"dx":3,"dy":2},{"dx":7,"dy":2},{"dx":1,"dy":0},{"dx":7,"dy":0},{"dx":2,"dy":-1},{"dx":6,"dy":-4},{"dx":6,"dy":-7},{"dx":0,"dy":0},{"dx":1,"dy":-2},{"dx":2,"dy":-3},{"dx":2,"dy":-7},{"dx":0,"dy":-3},{"dx":0,"dy":-9},{"dx":0,"dy":-2},{"dx":-2,"dy":-9},{"dx":-2,"dy":-2},{"dx":-1,"dy":-2},{"dx":-1,"dy":-2},{"dx":-5,"dy":-4},{"dx":-8,"dy":-4},{"dx":-1,"dy":0},{"dx":-8,"dy":-3},{"dx":-1,"dy":0},{"dx":-3,"dy":-1},{"dx":-8,"dy":0},{"dx":-7,"dy":1},{"dx":-7,"dy":2},{"dx":-9,"dy":4},{"dx":-1,"dy":1},{"dx":-2,"dy":1},{"dx":-2,"dy":2},{"dx":-5,"dy":6},{"dx":-3,"dy":7},{"dx":-3,"dy":8},{"dx":-1,"dy":1},{"dx":-4,"dy":7},{"dx":0,"dy":1},{"dx":-2,"dy":1},{"dx":-3,"dy":9},{"dx":-1,"dy":1},{"dx":-1,"dy":2},{"dx":-2,"dy":10},{"dx":-2,"dy":9},{"dx":0,"dy":0},{"dx":-1,"dy":2},{"dx":-1,"dy":3},{"dx":-1,"dy":2},{"dx":0,"dy":2},{"dx":-3,"dy":2},{"dx":-5,"dy":4},{"dx":-8,"dy":2},{"dx":-8,"dy":0},{"dx":-9,"dy":0},{"dx":-1,"dy":0},{"dx":-7,"dy":-1},{"dx":-7,"dy":-6},{"dx":-7,"dy":-7},{"dx":-4,"dy":-8},{"dx":-5,"dy":-8},{"dx":-4,"dy":-9},{"dx":-2,"dy":-2},{"dx":-2,"dy":-6},{"dx":-1,"dy":-2},{"dx":-1,"dy":-3},{"dx":0,"dy":-3},{"dx":-1,"dy":-1},{"dx":0,"dy":-4},{"dx":0,"dy":-2},{"dx":1,"dy":-2},{"dx":7,"dy":-8},{"dx":0,"dy":-1},{"dx":7,"dy":-2},{"dx":8,"dy":-3},{"dx":8,"dy":0},{"dx":7,"dy":0},{"dx":8,"dy":0},{"dx":8,"dy":2},{"dx":7,"dy":3},{"dx":6,"dy":3},{"dx":1,"dy":1},{"dx":6,"dy":5},{"dx":1,"dy":0},{"dx":1,"dy":1},{"dx":1,"dy":1},{"dx":7,"dy":7},{"dx":0,"dy":0},{"dx":2,"dy":2},{"dx":6,"dy":4},{"dx":6,"dy":6},{"dx":0,"dy":1},{"dx":7,"dy":6},{"dx":1,"dy":1},{"dx":1,"dy":1},{"dx":2,"dy":1},{"dx":3,"dy":1},{"dx":2,"dy":1},{"dx":7,"dy":1},{"dx":0,"dy":0},{"dx":3,"dy":0},{"dx":7,"dy":0},{"dx":2,"dy":-1},{"dx":3,"dy":-1},{"dx":6,"dy":-3},{"dx":1,"dy":-1},{"dx":2,"dy":-3},{"dx":5,"dy":-5},{"dx":3,"dy":-9},{"dx":2,"dy":-10},{"dx":0,"dy":-1},{"dx":0,"dy":-8},{"dx":0,"dy":-3},{"dx":-2,"dy":-10},{"dx":-1,"dy":-1},{"dx":-2,"dy":-1},{"dx":-7,"dy":-6},{"dx":-8,"dy":-2},{"dx":-9,"dy":-2},{"dx":-8,"dy":0},{"dx":-7,"dy":-1},{"dx":-1,"dy":0},{"dx":-8,"dy":0},{"dx":-2,"dy":0},{"dx":-7,"dy":2},{"dx":-1,"dy":0},{"dx":-6,"dy":3},{"dx":-5,"dy":5},{"dx":-1,"dy":0},{"dx":-5,"dy":8},{"dx":0,"dy":1},{"dx":-1,"dy":2},{"dx":-1,"dy":3},{"dx":-1,"dy":2},{"dx":0,"dy":9},{"dx":0,"dy":2},{"dx":2,"dy":6},{"dx":1,"dy":1},{"dx":5,"dy":7},{"dx":4,"dy":6},{"dx":1,"dy":1},{"dx":5,"dy":8},{"dx":4,"dy":7},{"dx":1,"dy":1},{"dx":0,"dy":4},{"dx":1,"dy":1},{"dx":1,"dy":1},{"dx":0,"dy":1},{"dx":0,"dy":0},{"dx":0,"dy":0},{"dx":0,"dy":1},{"dx":-1,"dy":2},{"dx":-1,"dy":1},{"dx":-6,"dy":5},{"dx":-1,"dy":1},{"dx":-2,"dy":1},{"dx":-4,"dy":6},{"dx":-2,"dy":1},{"dx":-2,"dy":1},{"dx":-7,"dy":4},{"dx":-2,"dy":0},{"dx":-7,"dy":1},{"dx":-15,"dy":0},{"dx":-1,"dy":0},{"dx":-6,"dy":-1},{"dx":-3,"dy":-1},{"dx":-8,"dy":-3},{"dx":-2,"dy":-1},{"dx":-2,"dy":-1},{"dx":-3,"dy":-1},{"dx":-3,"dy":0},{"dx":-2,"dy":0},{"dx":-1,"dy":2},{"dx":-1,"dy":1},{"dx":-3,"dy":7},{"dx":0,"dy":7},{"dx":0,"dy":11},{"dx":1,"dy":2}