[{"success":true,"rt":1867,"trial_type":"fullscreen","trial_index":0,"plugin_version":"2.1.0","time_elapsed":2903},{"task":"fixation","rt":1141,"stimulus":"<div style=\"font-size:60px;\">+</div>","response":" ","trial_type":"html-keyboard-response","trial_index":1,"plugin_version":"2.1.0","time_elapsed":4047},{"task":"movingdots","control_change":0,"mouse_data":[{"dx":0,"dy":0},{"dx":0,"dy":0},{"dx":0,"dy":0},{"dx":0,"dy":0},{"dx":0,"dy":0},{"dx":0,"dy":0},{"dx":0,"dy":0},{"dx":0,"dy":0},{"dx":0,"dy":0},{"dx":0,"dy":0},{"dx":0,"dy":0},{"dx":0,"dy":0},{"dx":0,"dy":0},{"dx":0,"dy":0},{"dx":0,"dy":0},{"dx":0,"dy":0},{"dx":0,"dy":0},{"dx":0,"dy":0},{"dx":0,"dy":0},{"dx":0,"dy":0},{"dx":0,"dy":0},{"dx":0,"dy":0},{"dx":0,"dy":0},{"dx":0,"dy":0},{"dx":0,"dy":0},{"dx":0,"dy":0},{"dx":0,"dy":0},{"dx":0,"dy":0},{"dx":0,"dy":0},{"dx":0,"dy":0},{"dx":0,"dy":0},{"dx":0,"dy":0},{"dx":0,"dy":0},{"dx":0,"dy":0},{"dx":0,"dy":0},{"dx":0,"dy":-1},{"dx":0,"dy":-2},{"dx":-1,"dy":-5},{"dx":0,"dy":-1},{"dx":0,"dy":-2},{"dx":0,"dy":-2},{"dx":0,"dy":-5},{"dx":0,"dy":-1},{"dx":-1,"dy":-2},{"dx":0,"dy":-1},{"dx":0,"dy":-2},{"dx":0,"dy":-2},{"dx":0,"dy":-1},{"dx":0,"dy":-3},{"dx":0,"dy":-5},{"dx":0,"dy":0},{"dx":0,"dy":-2},{"dx":0,"dy":-2},{"dx":0,"dy":-1},{"dx":0,"dy":-2},{"dx":0,"dy":-1},{"dx":0,"dy":-2},{"dx":0,"dy":-2},{"dx":0,"dy":-1},{"dx":0,"dy":-2},{"dx":1,"dy":-1},{"dx":0,"dy":-2},{"dx":1,"dy":-1},{"dx":2,"dy":-5},{"dx":0,"dy":-1},{"dx":1,"dy":-2},{"dx":3,"dy":-4},{"dx":0,"dy":-1},{"dx":2,"dy":-3},{"dx":1,"dy":-2},{"dx":2,"dy":-4},{"dx":0,"dy":-2},{"dx":2,"dy":-5},{"dx":0,"dy":-1},{"dx":1,"dy":-1},{"dx":2,"dy":-6},{"dx":1,"dy":0},{"dx":0,"dy":-1},{"dx":1,"dy":-1},{"dx":3,"dy":-5},{"dx":0,"dy":0},{"dx":2,"dy":-2},{"dx":0,"dy":-1},{"dx":1,"dy":0},{"dx":1,"dy":-1},{"dx":0,"dy":0},{"dx":1,"dy":-1},{"dx":3,"dy":-2},{"dx":1,"dy":-1},{"dx":2,"dy":-2},{"dx":2,"dy":-1},{"dx":3,"dy":-3},{"dx":0,"dy":-1},{"dx":5,"dy":-4},{"dx":3,"dy":-3},{"dx":1,"dy":0},{"dx":3,"dy":-3},{"dx":3,"dy":-2},{"dx":5,"dy":-2},{"dx":4,"dy":-2},{"dx":0,"dy":-1},{"dx":5,"dy":-2},{"dx":1,"dy":0},{"dx":4,"dy":-2},{"dx":1,"dy":0},{"dx":1,"dy":-1},{"dx":1,"dy":-1},{"dx":4,"dy":-2},{"dx":2,"dy":0},{"dx":1,"dy":-1},{"dx":4,"dy":-1},{"dx":1,"dy":0},{"dx":2,"dy":-1},{"dx":3,"dy":0},{"dx":1,"dy":-1},{"dx":1,"dy":0},{"dx":5,"dy":-1},{"dx":1,"dy":0},{"dx":1,"dy":-1},{"dx":1,"dy":0},{"dx":2,"dy":0},{"dx":1,"dy":0},{"dx":1,"dy":0},{"dx":1,"dy":0},{"dx":2,"dy":-1},{"dx":1,"dy":0},{"dx":2,"dy":0},{"dx":1,"dy":-1},{"dx":1,"dy":0},{"dx":5,"dy":-1},{"dx":1,"dy":-1},{"dx":4,"dy":-1},{"dx":5,"dy":-1},{"dx":5,"dy":-1},{"dx":1,"dy":-1},{"dx":5,"dy":-1},{"dx":0,"dy":0},{"dx":5,"dy":-1},{"dx":1,"dy":0},{"dx":5,"dy":-2},{"dx":1,"dy":0},{"dx":5,"dy":-1},{"dx":5,"dy":0},{"dx":4,"dy":-1},{"dx":2,"dy":-1},{"dx":4,"dy":-1},{"dx":4,"dy":-1},{"dx":4,"dy":-2},{"dx":1,"dy":0},{"dx":3,"dy":0},{"dx":5,"dy":-1},{"dx":5,"dy":-1},{"dx":5,"dy":0},{"dx":1,"dy":-1},{"dx":4,"dy":-1},{"dx":1,"dy":0},{"dx":1,"dy":-1},{"dx":4,"dy":-1},{"dx":1,"dy":0},{"dx":4,"dy":-1},{"dx":1,"dy":-1},{"dx":3,"dy":-1},{"dx":1,"dy":0},{"dx":5,"dy":-2},{"dx":1,"dy":0},{"dx":1,"dy":-1},{"dx":5,"dy":-1},{"dx":1,"dy":-1},{"dx":1,"dy":-1},{"dx":1,"dy":-1},{"dx":1,"dy":-1},{"dx":1,"dy":-1},{"dx":4,"dy":-2},{"dx":0,"dy":0},{"dx":1,"dy":-2},{"dx":1,"dy":-1},{"dx":1,"dy":-1},{"dx":1,"dy":0},{"dx":1,"dy":-1},{"dx":1,"dy":-1},{"dx":1,"dy":-1},{"dx":1,"dy":-1},{"dx":1,"dy":-1},{"dx":1,"dy":0},{"dx":1,"dy":-1},{"dx":1,"dy":-1},{"dx":1,"dy":-1},{"dx":4,"dy":-2},{"dx":0,"dy":-1},{"dx":1,"dy":0},{"dx":1,"dy":-2},{"dx":1,"dy":-1},{"dx":1,"dy":0},{"dx":1,"dy":-1},{"dx":0,"dy":-1},{"dx":1,"dy":-1},{"dx":1,"dy":-1},{"dx":1,"dy":0},{"dx":1,"dy":-1},{"dx":1,"dy":-1},{"dx":1,"dy":-1},{"dx":1,"dy":0},{"dx":2,"dy":-1},{"dx":4,"dy":-2},{"dx":1,"dy":0},{"dx":5,"dy":-2},{"dx":1,"dy":0},{"dx":4,"dy":-1},{"dx":0,"dy":0},{"dx":5,"dy":0},{"dx":1,"dy":-1},{"dx":5,"dy":0},{"dx":4,"dy":0},{"dx":0,"dy":0},{"dx":8,"dy":4},{"dx":7,"dy":1},{"dx":7,"dy":2},{"dx":6,"dy":2},{"dx":5,"dy":3},{"dx":5,"dy":2},{"dx":8,"dy":4},{"dx":1,"dy":0},{"dx":5,"dy":4},{"dx":4,"dy":2},{"dx":2,"dy":4},{"dx":1,"dy":0},{"dx":3,"dy":5},{"dx":3,"dy":4},{"dx":0,"dy":1},{"dx":3,"dy":5},{"dx":3,"dy":3},{"dx":3,"dy":5},{"dx":3,"dy":9},{"dx":0,"dy":6},{"dx":1,"dy":6},{"dx":1,"dy":4},{"dx":2,"dy":5},{"dx":2,"dy":3},{"dx":3,"dy":4},{"dx":3,"dy":3},{"dx":1,"dy":2},{"dx":2,"dy":4},{"dx":1,"dy":6},{"dx":0,"dy":0},{"dx":0,"dy":1},{"dx":0,"dy":2},{"dx":0,"dy":1},{"dx":-1,"dy":2},{"dx":-1,"dy":4},{"dx":-1,"dy":1},{"dx":-3,"dy":4},{"dx":-4,"dy":3},{"dx":-4,"dy":5},{"dx":-4,"dy":3},{"dx":-3,"dy":3},{"dx":-4,"dy":4},{"dx":-6,"dy":5},{"dx":0,"dy":1},{"dx":-4,"dy":2},{"dx":-1,"dy":1},{"dx":-1,"dy":0},{"dx":-1,"dy":1},{"dx":-4,"dy":2},{"dx":-1,"dy":1},{"dx":-4,"dy":2},{"dx":-1,"dy":1},{"dx":-4,"dy":2},{"dx":-3,"dy":2},{"dx":-6,"dy":3},{"dx":-4,"dy":3},{"dx":-4,"dy":2},{"dx":-5,"dy":2},{"dx":-7,"dy":4},{"dx":-1,"dy":1},{"dx":-4,"dy":3},{"dx":-3,"dy":2},{"dx":-4,"dy":3},{"dx":-4,"dy":2},{"dx":-8,"dy":4},{"dx":-4,"dy":2},{"dx":-4,"dy":4},{"dx":-3,"dy":3},{"dx":-1,"dy":1},{"dx":-4,"dy":4},{"dx":-4,"dy":4},{"dx":0,"dy":0},{"dx":-4,"dy":3},{"dx":-2,"dy":4},{"dx":-4,"dy":4},{"dx":-1,"dy":0},{"dx":-3,"dy":3},{"dx":-1,"dy":1},{"dx":-3,"dy":3},{"dx":-1,"dy":1},{"dx":-3,"dy":3},{"dx":-2,"dy":4},{"dx":-2,"dy":5},{"dx":0,"dy":1},{"dx":-1,"dy":5},{"dx":-1,"dy":6},{"dx":0,"dy":0},{"dx":-1,"dy":4},{"dx":0,"dy":6},{"dx":-1,"dy":6},{"dx":0,"dy":1},{"dx":0,"dy":6},{"dx":0,"dy":5},{"dx":0,"dy":1},{"dx":0,"dy":1},{"dx":0,"dy":5},{"dx":0,"dy":1},{"dx":1,"dy":5},{"dx":2,"dy":4},{"dx":0,"dy":0},{"dx":4,"dy":5},{"dx":0,"dy":0},{"dx":4,"dy":4},{"dx":4,"dy":3},{"dx":1,"dy":0},{"dx":3,"dy":3},{"dx":4,"dy":3},{"dx":0,"dy":0},{"dx":3,"dy":3},{"dx":3,"dy":3},{"dx":1,"dy":0},{"dx":4,"dy":3},{"dx":8,"dy":3},{"dx":5,"dy":1},{"dx":5,"dy":2},{"dx":5,"dy":2},{"dx":0,"dy":0},{"dx":5,"dy":2},{"dx":6,"dy":1},{"dx":5,"dy":1},{"dx":5,"dy":1},{"dx":5,"dy":1},{"dx":5,"dy":0},{"dx":4,"dy":0},{"dx":10,"dy":-1},{"dx":5,"dy":-1},{"dx":4,"dy":0},{"dx":6,"dy":-1},{"dx":4,"dy":0},{"dx":5,"dy":-1},{"dx":5,"dy":-2},{"dx":1,"dy":0},{"dx":4,"dy":-1},{"dx":5,"dy":-2},{"dx":0,"dy":0},{"dx":5,"dy":-2},{"dx":1,"dy":0},{"dx":5,"dy":-2},{"dx":2,"dy":-3},{"dx":2,"dy":-1},{"dx":3,"dy":-3},{"dx":3,"dy":-3},{"dx":5,"dy":-5},{"dx":0,"dy":0},{"dx":3,"dy":-4},{"dx":4,"dy":-5},{"dx":4,"dy":-3},{"dx":0,"dy":-1},{"dx":7,"dy":-7},{"dx":3,"dy":-4},{"dx":3,"dy":-5},{"dx":3,"dy":-4},{"dx":5,"dy":-4},{"dx":0,"dy":-1},{"dx":3,"dy":-3},{"dx":4,"dy":-4},{"dx":3,"dy":-3},{"dx":0,"dy":0},{"dx":4,"dy":-5},{"dx":3,"dy":-3},{"dx":1,"dy":-1},{"dx":2,"dy":-4},{"dx":4,"dy":-4},{"dx":3,"dy":-5},{"dx":4,"dy":-6},{"dx":3,"dy":-3},{"dx":0,"dy":-1},{"dx":3,"dy":-4},{"dx":0,"dy":-1},{"dx":1,"dy":-1},{"dx":3,"dy":-5},{"dx":0,"dy":-1},{"dx":3,"dy":-5},{"dx":2,"dy":-5},{"dx":1,"dy":-1},{"dx":1,"dy":-5},{"dx":4,"dy":-10},{"dx":2,"dy":-5},{"dx":2,"dy":-4},{"dx":3,"dy":-4},{"dx":0,"dy":-1},{"dx":1,"dy":-1},{"dx":2,"dy":-6},{"dx":2,"dy":-3},{"dx":2,"dy":-7},{"dx":1,"dy":-6},{"dx":0,"dy":-2},{"dx":1,"dy":-5},{"dx":2,"dy":-6},{"dx":0,"dy":0},{"dx":1,"dy":-6},{"dx":1,"dy":-2},{"dx":1,"dy":-5},{"dx":1,"dy":-4},{"dx":2,"dy":-7},{"dx":0,"dy":-2},{"dx":2,"dy":-5},{"dx":3,"dy":-6},{"dx":2,"dy":-4},{"dx":1,"dy":-1},{"dx":1,"dy":-2},{"dx":2,"dy":-4},{"dx":0,"dy":-1},{"dx":3,"dy":-5},{"dx":1,"dy":-1},{"dx":3,"dy":-4},{"dx":0,"dy":-1},{"dx":1,"dy":-1},{"dx":0,"dy":-1},{"dx":2,"dy":-5},{"dx":0,"dy":0},{"dx":1,"dy":-1},{"dx":0,"dy":-3},{"dx":1,"dy":-1},{"dx":2,"dy":-4},{"dx":1,"dy":-2},{"dx":3,"dy":-3},{"dx":0,"dy":0},{"dx":1,"dy":-2},{"dx":0,"dy":-1},{"dx":1,"dy":-1},{"dx":3,"dy":-5},{"dx":0,"dy":-2},{"dx":2,"dy":-6},{"dx":1,"dy":-4},{"dx":0,"dy":-1},{"dx":1,"dy":-5},{"dx":2,"dy":-6},{"dx":0,"dy":0},{"dx":1,"dy":-1},{"dx":2,"dy":-5},{"dx":2,"dy":-6},{"dx":0,"dy":-1},{"dx":0,"dy":-1},{"dx":2,"dy":-6},{"dx":0,"dy":-1},{"dx":2,"dy":-5},{"dx":0,"dy":-1},{"dx":3,"dy":-5}],"trial_type":"plugin-moving-dots-2","trial_index":2,"plugin_version":"0.0.1","time_elapsed":11562},{"task":"fixation","rt":2179,"stimulus":"<div style=\"font-size:60px;\">+</div>","response":" ","trial_type":"html-keyboard-response","trial_index":3,"plugin_version":"2.1.0","time_elapsed":13743},{"task":"movingdots","control_change":0,"mouse_data":[{"dx":0,"dy":0},{"dx":0,"dy":0},{"dx":0,"dy":0},{"dx":0,"dy":0},{"dx":0,"dy":0},{"dx":0,"dy":0},{"dx":0,"dy":0},{"dx":0,"dy":0},{"dx":0,"dy":0},{"dx":0,"dy":0},{"dx":0,"dy":0},{"dx":0,"dy":0},{"dx":0,"dy":0},{"dx":0,"dy":0},{"dx":0,"dy":0},{"dx":0,"dy":0},{"dx":0,"dy":0},{"dx":0,"dy":0},{"dx":0,"dy":0},{"dx":0,"dy":0},{"dx":0,"dy":0},{"dx":0,"dy":0},{"dx":0,"dy":0},{"dx":0,"dy":0},{"dx":0,"dy":0},{"dx":0,"dy":0},{"dx":0,"dy":0},{"dx":0,"dy":0},{"dx":0,"dy":0},{"dx":0,"dy":0},{"dx":0,"dy":0},{"dx":0,"dy":0},{"dx":0,"dy":0},{"dx":0,"dy":0},{"dx":0,"dy":0},{"dx":0,"dy":0},{"dx":0,"dy":0},{"dx":0,"dy":0},{"dx":0,"dy":0},{"dx":0,"dy":0},{"dx":0,"dy":0},{"dx":0,"dy":0},{"dx":0,"dy":0},{"dx":0,"dy":0},{"dx":0,"dy":0},{"dx":0,"dy":0},{"dx":0,"dy":0},{"dx":0,"dy":0},{"dx":0,"dy":0},{"dx":0,"dy":0},{"dx":0,"dy":0},{"dx":0,"dy":0},{"dx":0,"dy":0},{"dx":0,"dy":0},{"dx":0,"dy":0},{"dx":0,"dy":0},{"dx":0,"dy":0},{"dx":0,"dy":0},{"dx":0,"dy":0},{"dx":0,"dy":0},{"dx":0,"dy":0},{"dx":0,"dy":0},{"dx":0,"dy":0},{"dx":0,"dy":0},{"dx":0,"dy":0},{"dx":0,"dy":0},{"dx":0,"dy":0},{"dx":0,"dy":0},{"dx":0,"dy":0},{"dx":0,"dy":0},{"dx":0,"dy":0},{"dx":0,"dy":0},{"dx":0,"dy":0},{"dx":0,"dy":0},{"dx":0,"dy":0},{"dx":0,"dy":0},{"dx":0,"dy":0},{"dx":0,"dy":0},{"dx":0,"dy":0},{"dx":0,"dy":0},{"dx":0,"dy":0},{"dx":0,"dy":0},{"dx":0,"dy":0},{"dx":0,"dy":0},{"dx":0,"dy":0},{"dx":0,"dy":0},{"dx":0,"dy":0},{"dx":0,"dy":0},{"dx":0,"dy":0},{"dx":0,"dy":0},{"dx":0,"dy":0},{"dx":0,"dy":0},{"dx":0,"dy":0},{"dx":0,"dy":0},{"dx":0,"dy":0},{"dx":0,"dy":0},{"dx":0,"dy":0},{"dx":0,"dy":0},{"dx":0,"dy":0},{"dx":0,"dy":0},{"dx":0,"dy":0},{"dx":0,"dy":0},{"dx":0,"dy":0},{"dx":0,"dy":0},{"dx":0,"dy":0},{"dx":0,"dy":0},{"dx":0,"dy":0},{"dx":0,"dy":0},{"dx":0,"dy":0},{"dx":0,"dy":0},{"dx":0,"dy":0},{"dx":0,"dy":0},{"dx":0,"dy":0},{"dx":0,"dy":0},{"dx":0,"dy":0},{"dx":0,"dy":0},{"dx":0,"dy":0},{"dx":0,"dy":0},{"dx":0,"dy":0},{"dx":0,"dy":0},{"dx":0,"dy":0},{"dx":0,"dy":0},{"dx":0,"dy":0},{"dx":0,"dy":0},{"dx":0,"dy":0},{"dx":0,"dy":0},{"dx":0,"dy":0},{"dx":0,"dy":0},{"dx":0,"dy":0},{"dx":0,"dy":0},{"dx":0,"dy":0},{"dx":0,"dy":0},{"dx":0,"dy":0},{"dx":0,"dy":0},{"dx":0,"dy":0},{"dx":0,"dy":0},{"dx":-3,"dy":-4},{"dx":-3,"dy":-3},{"dx":-6,"dy":-9},{"dx":0,"dy":-1},{"dx":-3,"dy":-4},{"dx":-2,"dy":-5},{"dx":-1,"dy":-1},{"dx":-2,"dy":-4},{"dx":0,"dy":-2},{"dx":-1,"dy":-1},{"dx":-3,"dy":-5},{"dx":-3,"dy":-5},{"dx":0,"dy":0},{"dx":-1,"dy":-1},{"dx":-1,"dy":-2},{"dx":0,"dy":-1},{"dx":0,"dy":0},{"dx":-1,"dy":0},{"dx":0,"dy":0},{"dx":0,"dy":-1},{"dx":0,"dy":0},{"dx":0,"dy":-1},{"dx":0,"dy":-1},{"dx":-1,"dy":-6},{"dx":-2,"dy":-5},{"dx":-2,"dy":-5},{"dx":-2,"dy":-5},{"dx":-5,"dy":-10},{"dx":-1,"dy":-4},{"dx":-3,"dy":-6},{"dx":0,"dy":-1},{"dx":-2,"dy":-5},{"dx":-3,"dy":-5},{"dx":-3,"dy":-4},{"dx":0,"dy":-1},{"dx":-3,"dy":-4},{"dx":-1,"dy":-1},{"dx":-2,"dy":-4},{"dx":-2,"dy":-5},{"dx":-1,"dy":0},{"dx":0,"dy":-1},{"dx":-2,"dy":-4},{"dx":-3,"dy":-5},{"dx":0,"dy":-1},{"dx":-2,"dy":-6},{"dx":0,"dy":-1},{"dx":-2,"dy":-5},{"dx":-2,"dy":-6},{"dx":-3,"dy":-4},{"dx":0,"dy":0},{"dx":-3,"dy":-5},{"dx":-3,"dy":-5},{"dx":0,"dy":-1},{"dx":-5,"dy":-8},{"dx":-1,"dy":-1},{"dx":-2,"dy":-5},{"dx":-2,"dy":-6},{"dx":-1,"dy":-1},{"dx":-2,"dy":-4},{"dx":-1,"dy":-1},{"dx":-3,"dy":-5},{"dx":0,"dy":-1},{"dx":-3,"dy":-5},{"dx":-1,"dy":0},{"dx":-1,"dy":-2},{"dx":-4,"dy":-4},{"dx":-3,"dy":-3},{"dx":-1,"dy":0},{"dx":-4,"dy":-3},{"dx":-1,"dy":0},{"dx":-4,"dy":-3},{"dx":0,"dy":0},{"dx":-5,"dy":-2},{"dx":0,"dy":0},{"dx":-1,"dy":-1},{"dx":-5,"dy":-1},{"dx":-5,"dy":0},{"dx":0,"dy":0},{"dx":-6,"dy":0},{"dx":-5,"dy":1},{"dx":0,"dy":0},{"dx":-7,"dy":1},{"dx":-4,"dy":1},{"dx":-1,"dy":0},{"dx":-1,"dy":1},{"dx":-4,"dy":1},{"dx":-1,"dy":1},{"dx":-2,"dy":0},{"dx":-1,"dy":1},{"dx":-1,"dy":0},{"dx":-4,"dy":4},{"dx":-4,"dy":3},{"dx":-3,"dy":3},{"dx":-1,"dy":0},{"dx":-8,"dy":7},{"dx":-4,"dy":4},{"dx":-8,"dy":6},{"dx":-5,"dy":3},{"dx":-3,"dy":3},{"dx":-3,"dy":3},{"dx":-5,"dy":5},{"dx":-4,"dy":4},{"dx":-5,"dy":3},{"dx":-4,"dy":4},{"dx":-4,"dy":4},{"dx":-3,"dy":4},{"dx":-3,"dy":3},{"dx":-6,"dy":8},{"dx":-3,"dy":3},{"dx":-1,"dy":1},{"dx":-3,"dy":5},{"dx":-2,"dy":4},{"dx":-2,"dy":1},{"dx":-3,"dy":4},{"dx":-3,"dy":5},{"dx":0,"dy":0},{"dx":-3,"dy":5},{"dx":-1,"dy":1},{"dx":-2,"dy":6},{"dx":-2,"dy":4},{"dx":-2,"dy":5},{"dx":-2,"dy":6},{"dx":-1,"dy":1},{"dx":-1,"dy":6},{"dx":-2,"dy":4},{"dx":-1,"dy":6},{"dx":-1,"dy":7},{"dx":0,"dy":1},{"dx":-1,"dy":6},{"dx":-1,"dy":10},{"dx":0,"dy":0},{"dx":0,"dy":7},{"dx":0,"dy":5},{"dx":0,"dy":1},{"dx":0,"dy":5},{"dx":0,"dy":1},{"dx":0,"dy":2},{"dx":1,"dy":5},{"dx":0,"dy":1},{"dx":0,"dy":2},{"dx":1,"dy":4},{"dx":0,"dy":1},{"dx":0,"dy":2},{"dx":1,"dy":5},{"dx":-1,"dy":6},{"dx":-1,"dy":1},{"dx":-2,"dy":4},{"dx":-5,"dy":5},{"dx":-4,"dy":4},{"dx":-3,"dy":4},{"dx":-3,"dy":3},{"dx":-3,"dy":4},{"dx":-4,"dy":6},{"dx":-3,"dy":3},{"dx":-1,"dy":2},{"dx":-1,"dy":1},{"dx":-1,"dy":0},{"dx":-1,"dy":1},{"dx":0,"dy":0},{"dx":0,"dy":0},{"dx":0,"dy":0},{"dx":0,"dy":0},{"dx":0,"dy":0},{"dx":0,"dy":0},{"dx":0,"dy":0},{"dx":0,"dy":1},{"dx":0,"dy":0},{"dx":0,"dy":0},{"dx":-2,"dy":1},{"dx":-4,"dy":1},{"dx":0,"dy":0},{"dx":-1,"dy":0},{"dx":-1,"dy":0},{"dx":0,"dy":0},{"dx":0,"dy":0},{"dx":-1,"dy":0},{"dx":0,"dy":0},{"dx":0,"dy":0},{"dx":-1,"dy":-1},{"dx":-1,"dy":-1},{"dx":0,"dy":0},{"dx":-1,"dy":-1},{"dx":0,"dy":-1},{"dx":-1,"dy":-1},{"dx":-2,"dy":-1},{"dx":-3,"dy":-3},{"dx":-1,"dy":-1},{"dx":-3,"dy":-3},{"dx":-4,"dy":-4},{"dx":0,"dy":-1},{"dx":-4,"dy":-3},{"dx":-4,"dy":-3},{"dx":-1,"dy":-1},{"dx":-3,"dy":-2},{"dx":-4,"dy":-3},{"dx":0,"dy":0},{"dx":-4,"dy":-5},{"dx":0,"dy":0},{"dx":-3,"dy":-5},{"dx":-2,"dy":-4},{"dx":0,"dy":-1},{"dx":-2,"dy":-4},{"dx":-3,"dy":-6},{"dx":0,"dy":0},{"dx":-2,"dy":-4},{"dx":-1,"dy":-2},{"dx":-2,"dy":-4},{"dx":-1,"dy":-1},{"dx":-2,"dy":-5},{"dx":0,"dy":-1},{"dx":-1,"dy":-6},{"dx":-1,"dy":-5},{"dx":-1,"dy":-7},{"dx":0,"dy":0},{"dx":-1,"dy":-6},{"dx":0,"dy":-2},{"dx":-1,"dy":-5},{"dx":-1,"dy":-6},{"dx":0,"dy":-1},{"dx":0,"dy":-4},{"dx":1,"dy":-11},{"dx":0,"dy":-5},{"dx":0,"dy":-1},{"dx":1,"dy":-5},{"dx":1,"dy":-5},{"dx":0,"dy":-2},{"dx":2,"dy":-6},{"dx":1,"dy":-5},{"dx":1,"dy":-1},{"dx":2,"dy":-11},{"dx":0,"dy":-1},{"dx":2,"dy":-6},{"dx":2,"dy":-5},{"dx":3,"dy":-5},{"dx":0,"dy":-1},{"dx":5,"dy":-10},{"dx":2,"dy":-5},{"dx":1,"dy":-1},{"dx":5,"dy":-10},{"dx":3,"dy":-4},{"dx":3,"dy":-5},{"dx":2,"dy":-4},{"dx":1,"dy":0},{"dx":3,"dy":-3},{"dx":5,"dy":-5},{"dx":5,"dy":-3},{"dx":3,"dy":-3},{"dx":4,"dy":-3},{"dx":8,"dy":-6},{"dx":4,"dy":-3},{"dx":4,"dy":-4},{"dx":4,"dy":-4},{"dx":5,"dy":-3},{"dx":6,"dy":-3},{"dx":8,"dy":-3},{"dx":4,"dy":-2},{"dx":4,"dy":-1},{"dx":5,"dy":-1},{"dx":4,"dy":-1},{"dx":5,"dy":-1},{"dx":5,"dy":-2},{"dx":5,"dy":0},{"dx":5,"dy":-2},{"dx":5,"dy":-2},{"dx":5,"dy":-1},{"dx":6,"dy":-1},{"dx":11,"dy":-3},{"dx":5,"dy":-1},{"dx":5,"dy":-2},{"dx":7,"dy":-1},{"dx":5,"dy":-1},{"dx":5,"dy":0},{"dx":8,"dy":-1},{"dx":5,"dy":0},{"dx":0,"dy":0},{"dx":5,"dy":0},{"dx":4,"dy":0},{"dx":1,"dy":0},{"dx":5,"dy":1},{"dx":2,"dy":0},{"dx":4,"dy":1},{"dx":2,"dy":1},{"dx":4,"dy":1},{"dx":0,"dy":0},{"dx":2,"dy":1},{"dx":1,"dy":0},{"dx":1,"dy":1},{"dx":2,"dy":0},{"dx":1,"dy":0},{"dx":4,"dy":2},{"dx":1,"dy":1},{"dx":5,"dy":1},{"dx":3,"dy":2},{"dx":1,"dy":0},{"dx":5,"dy":2},{"dx":0,"dy":0},{"dx":5,"dy":2},{"dx":1,"dy":1},{"dx":4,"dy":2},{"dx":1,"dy":1},{"dx":2,"dy":2},{"dx":2,"dy":1},{"dx":3,"dy":2},{"dx":1,"dy":1},{"dx":1,"dy":0},{"dx":0,"dy":2},{"dx":3,"dy":4},{"dx":0,"dy":1},{"dx":1,"dy":5},{"dx":0,"dy":1},{"dx":1,"dy":5},{"dx":0,"dy":1},{"dx":0,"dy":5},{"dx":0,"dy":5},{"dx":0,"dy":0},{"dx":0,"dy":5},{"dx":-3,"dy":6}],"trial_type":"plugin-moving-dots-2","trial_index":4,"plugin_version":"0.0.1","time_elapsed":21261},{"task":"fixation","rt":3984,"stimulus":"<div style=\"font-size:60px;\">+</div>","response":" ","trial_type":"html-keyboard-response","trial_index":5,"plugin_version":"2.1.0","time_elapsed":25247},{"task":"movingdots","control_change":0,"mouse_data":[{"dx":0,"dy":0},{"dx":0,"dy":0},{"dx":0,"dy":0},{"dx":0,"dy":0},{"dx":0,"dy":0},{"dx":0,"dy":0},{"dx":0,"dy":0},{"dx":0,"dy":0},{"dx":0,"dy":0},{"dx":0,"dy":0},{"dx":0,"dy":0},{"dx":0,"dy":0},{"dx":0,"dy":0},{"dx":0,"dy":0},{"dx":0,"dy":0},{"dx":0,"dy":0},{"dx":0,"dy":0},{"dx":0,"dy":0},{"dx":0,"dy":0},{"dx":0,"dy":0},{"dx":0,"dy":0},{"dx":0,"dy":0},{"dx":0,"dy":0},{"dx":0,"dy":0},{"dx":0,"dy":0},{"dx":0,"dy":0},{"dx":0,"dy":0},{"dx":0,"dy":0},{"dx":0,"dy":0},{"dx":0,"dy":0},{"dx":0,"dy":0},{"dx":0,"dy":0},{"dx":0,"dy":0},{"dx":0,"dy":0},{"dx":0,"dy":0},{"dx":0,"dy":0},{"dx":0,"dy":0},{"dx":0,"dy":0},{"dx":0,"dy":0},{"dx":2,"dy":-5},{"dx":2,"dy":-4},{"dx":2,"dy":-5},{"dx":0,"dy":-1},{"dx":3,"dy":-5},{"dx":0,"dy":-1},{"dx":2,"dy":-6},{"dx":3,"dy":-6},{"dx":3,"dy":-5},{"dx":0,"dy":-1},{"dx":2,"dy":-3},{"dx":1,"dy":-2},{"dx":3,"dy":-4},{"dx":3,"dy":-5},{"dx":0,"dy":-1},{"dx":4,"dy":-4},{"dx":3,"dy":-3},{"dx":0,"dy":-1},{"dx":4,"dy":-4},{"dx":4,"dy":-5},{"dx":2,"dy":-4},{"dx":4,"dy":-4},{"dx":5,"dy":-4},{"dx":3,"dy":-5},{"dx":5,"dy":-5},{"dx":5,"dy":-5},{"dx":4,"dy":-4},{"dx":8,"dy":-6},{"dx":4,"dy":-4},{"dx":3,"dy":-3},{"dx":4,"dy":-2},{"dx":0,"dy":-1},{"dx":4,"dy":-3},{"dx":4,"dy":-3},{"dx":3,"dy":-3},{"dx":1,"dy":0},{"dx":7,"dy":-7},{"dx":5,"dy":-4},{"dx":4,"dy":-3},{"dx":4,"dy":-3},{"dx":3,"dy":-2},{"dx":5,"dy":-4},{"dx":5,"dy":-5},{"dx":4,"dy":-4},{"dx":1,"dy":0},{"dx":8,"dy":-7},{"dx":4,"dy":-4},{"dx":3,"dy":-2},{"dx":4,"dy":-4},{"dx":5,"dy":-4},{"dx":5,"dy":-4},{"dx":9,"dy":-9},{"dx":5,"dy":-4},{"dx":4,"dy":-3},{"dx":5,"dy":-4},{"dx":2,"dy":-2},{"dx":4,"dy":-3},{"dx":5,"dy":-4},{"dx":0,"dy":-1},{"dx":1,"dy":-1},{"dx":3,"dy":-4},{"dx":1,"dy":-1},{"dx":3,"dy":-4},{"dx":4,"dy":-2},{"dx":0,"dy":-1},{"dx":4,"dy":-3},{"dx":4,"dy":-3},{"dx":4,"dy":-3},{"dx":1,"dy":-1},{"dx":4,"dy":-4},{"dx":4,"dy":-2},{"dx":4,"dy":-3},{"dx":6,"dy":-3},{"dx":3,"dy":-1},{"dx":1,"dy":-1},{"dx":5,"dy":-2},{"dx":5,"dy":-2},{"dx":1,"dy":-1},{"dx":4,"dy":-2},{"dx":4,"dy":-2},{"dx":1,"dy":0},{"dx":6,"dy":-2},{"dx":0,"dy":0},{"dx":1,"dy":0},{"dx":2,"dy":-1},{"dx":4,"dy":-1},{"dx":1,"dy":0},{"dx":1,"dy":0},{"dx":0,"dy":0},{"dx":2,"dy":0},{"dx":1,"dy":0},{"dx":1,"dy":0},{"dx":1,"dy":0},{"dx":2,"dy":0},{"dx":1,"dy":0},{"dx":1,"dy":0},{"dx":5,"dy":1},{"dx":0,"dy":0},{"dx":0,"dy":1},{"dx":4,"dy":2},{"dx":1,"dy":0},{"dx":4,"dy":3},{"dx":3,"dy":3},{"dx":1,"dy":1},{"dx":0,"dy":0},{"dx":3,"dy":3},{"dx":1,"dy":4},{"dx":1,"dy":1},{"dx":0,"dy":1},{"dx":2,"dy":6},{"dx":1,"dy":5},{"dx":0,"dy":1},{"dx":1,"dy":5},{"dx":0,"dy":1},{"dx":2,"dy":6},{"dx":1,"dy":1},{"dx":1,"dy":5},{"dx":1,"dy":1},{"dx":2,"dy":4},{"dx":0,"dy":1},{"dx":3,"dy":6},{"dx":2,"dy":5},{"dx":0,"dy":1},{"dx":2,"dy":4},{"dx":0,"dy":1},{"dx":1,"dy":5},{"dx":2,"dy":4},{"dx":3,"dy":5},{"dx":0,"dy":0},{"dx":2,"dy":6},{"dx":3,"dy":3},{"dx":0,"dy":1},{"dx":3,"dy":4},{"dx":3,"dy":5},{"dx":2,"dy":5},{"dx":3,"dy":4},{"dx":4,"dy":8},{"dx":1,"dy":0},{"dx":2,"dy":4},{"dx":3,"dy":4},{"dx":0,"dy":1},{"dx":3,"dy":4},{"dx":2,"dy":4},{"dx":4,"dy":6},{"dx":3,"dy":5},{"dx":2,"dy":3},{"dx":3,"dy":5},{"dx":3,"dy":2},{"dx":7,"dy":6},{"dx":4,"dy":3},{"dx":0,"dy":1},{"dx":7,"dy":6},{"dx":5,"dy":2},{"dx":4,"dy":2},{"dx":5,"dy":2},{"dx":4,"dy":1},{"dx":4,"dy":2},{"dx":6,"dy":2},{"dx":5,"dy":1},{"dx":3,"dy":2},{"dx":6,"dy":1},{"dx":7,"dy":2},{"dx":0,"dy":0},{"dx":5,"dy":0},{"dx":1,"dy":0},{"dx":1,"dy":0},{"dx":1,"dy":0},{"dx":1,"dy":0},{"dx":1,"dy":0},{"dx":0,"dy":0},{"dx":0,"dy":0},{"dx":0,"dy":0},{"dx":3,"dy":-3},{"dx":0,"dy":0},{"dx":1,"dy":0},{"dx":5,"dy":-5},{"dx":0,"dy":0},{"dx":0,"dy":0},{"dx":4,"dy":-4},{"dx":0,"dy":0},{"dx":1,"dy":-1},{"dx":3,"dy":-4},{"dx":4,"dy":-3},{"dx":0,"dy":-1},{"dx":3,"dy":-3},{"dx":3,"dy":-4},{"dx":3,"dy":-3},{"dx":3,"dy":-5},{"dx":0,"dy":0},{"dx":2,"dy":-4},{"dx":1,"dy":-1},{"dx":1,"dy":-2},{"dx":2,"dy":-4},{"dx":1,"dy":-1},{"dx":2,"dy":-4},{"dx":0,"dy":-1},{"dx":2,"dy":-6},{"dx":0,"dy":-1},{"dx":1,"dy":-1},{"dx":1,"dy":-6},{"dx":0,"dy":-5},{"dx":1,"dy":-5},{"dx":0,"dy":-6},{"dx":0,"dy":-1},{"dx":0,"dy":-6},{"dx":0,"dy":-6},{"dx":0,"dy":-1},{"dx":0,"dy":-5},{"dx":0,"dy":-10},{"dx":0,"dy":-6},{"dx":-1,"dy":-1},{"dx":-1,"dy":-7},{"dx":-1,"dy":-5},{"dx":-1,"dy":-6},{"dx":-3,"dy":-6},{"dx":-1,"dy":-5},{"dx":-1,"dy":-1},{"dx":-3,"dy":-7},{"dx":-1,"dy":-5},{"dx":-3,"dy":-5},{"dx":-3,"dy":-4},{"dx":-6,"dy":-9},{"dx":-4,"dy":-3},{"dx":-3,"dy":-3},{"dx":-4,"dy":-3},{"dx":-4,"dy":-3},{"dx":-4,"dy":-3},{"dx":-9,"dy":-6},{"dx":-3,"dy":-2},{"dx":-4,"dy":-3},{"dx":-5,"dy":-2},{"dx":-6,"dy":-3},{"dx":-5,"dy":-2},{"dx":-12,"dy":-4},{"dx":-7,"dy":-2},{"dx":-7,"dy":-2},{"dx":-14,"dy":-2},{"dx":-7,"dy":-1},{"dx":-8,"dy":-1},{"dx":-9,"dy":-2},{"dx":-8,"dy":-1},{"dx":-7,"dy":-1},{"dx":-12,"dy":-1},{"dx":-5,"dy":-1},{"dx":-5,"dy":0},{"dx":-5,"dy":0},{"dx":-5,"dy":0},{"dx":-5,"dy":0},{"dx":-7,"dy":0},{"dx":-4,"dy":0},{"dx":-1,"dy":0},{"dx":-6,"dy":2},{"dx":-4,"dy":1},{"dx":-4,"dy":2},{"dx":-5,"dy":3},{"dx":-5,"dy":3},{"dx":-4,"dy":3},{"dx":-8,"dy":7},{"dx":-1,"dy":1},{"dx":-3,"dy":3},{"dx":-6,"dy":8},{"dx":0,"dy":1},{"dx":-2,"dy":4},{"dx":-3,"dy":4},{"dx":-3,"dy":5},{"dx":0,"dy":1},{"dx":-5,"dy":10},{"dx":-1,"dy":5},{"dx":-2,"dy":5},{"dx":-1,"dy":5},{"dx":-2,"dy":5},{"dx":-2,"dy":6},{"dx":-4,"dy":9},{"dx":-1,"dy":3},{"dx":0,"dy":1},{"dx":-3,"dy":13},{"dx":0,"dy":6},{"dx":-1,"dy":1},{"dx":0,"dy":5},{"dx":-1,"dy":4},{"dx":0,"dy":7},{"dx":0,"dy":5},{"dx":0,"dy":0},{"dx":0,"dy":5},{"dx":1,"dy":7},{"dx":1,"dy":5},{"dx":0,"dy":1},{"dx":0,"dy":5},{"dx":1,"dy":6},{"dx":0,"dy":0},{"dx":1,"dy":5},{"dx":2,"dy":5},{"dx":0,"dy":1},{"dx":2,"dy":5},{"dx":0,"dy":0},{"dx":0,"dy":1},{"dx":2,"dy":6},{"dx":0,"dy":1},{"dx":0,"dy":1},{"dx":1,"dy":6},{"dx":1,"dy":1},{"dx":0,"dy":0},{"dx":2,"dy":6},{"dx":0,"dy":0},{"dx":1,"dy":1},{"dx":1,"dy":1},{"dx":3,"dy":4},{"dx":0,"dy":0},{"dx":4,"dy":3},{"dx":0,"dy":1},{"dx":4,"dy":2},{"dx":0,"dy":0},{"dx":4,"dy":3},{"dx":1,"dy":0},{"dx":3,"dy":3},{"dx":0,"dy":0},{"dx":2,"dy":1},{"dx":4,"dy":3},{"dx":0,"dy":0},{"dx":1,"dy":0},{"dx":1,"dy":2},{"dx":1,"dy":0},{"dx":1,"dy":1},{"dx":1,"dy":1},{"dx":4,"dy":3},{"dx":0,"dy":0},{"dx":1,"dy":0},{"dx":4,"dy":2},{"dx":1,"dy":0},{"dx":4,"dy":2},{"dx":4,"dy":2},{"dx":1,"dy":0},{"dx":4,"dy":2},{"dx":0,"dy":0},{"dx":1,"dy":0},{"dx":4,"dy":1},{"dx":2,"dy":1},{"dx":4,"dy":1},{"dx":1,"dy":0},{"dx":4,"dy":2},{"dx":0,"dy":0},{"dx":6,"dy":2},{"dx":1,"dy":1},{"dx":4,"dy":1},{"dx":1,"dy":0},{"dx":3,"dy":1},{"dx":1,"dy":1},{"dx":3,"dy":2},{"dx":5,"dy":3},{"dx":0,"dy":0},{"dx":1,"dy":1},{"dx":4,"dy":2},{"dx":1,"dy":1},{"dx":4,"dy":1},{"dx":1,"dy":1},{"dx":4,"dy":0},{"dx":5,"dy":1},{"dx":5,"dy":0},{"dx":1,"dy":0},{"dx":4,"dy":0},{"dx":1,"dy":-1},{"dx":5,"dy":-2},{"dx":4,"dy":-2},{"dx":4,"dy":-2},{"dx":6,"dy":-2},{"dx":5,"dy":-3},{"dx":3,"dy":-2},{"dx":5,"dy":-3},{"dx":1,"dy":-1},{"dx":4,"dy":-3},{"dx":4,"dy":-3},{"dx":3,"dy":-3},{"dx":8,"dy":-6},{"dx":1,"dy":-1},{"dx":4,"dy":-3},{"dx":4,"dy":-5},{"dx":3,"dy":-5},{"dx":0,"dy":0},{"dx":4,"dy":-4},{"dx":0,"dy":-1},{"dx":1,"dy":-1},{"dx":3,"dy":-4},{"dx":1,"dy":-1},{"dx":3,"dy":-3},{"dx":0,"dy":-1},{"dx":3,"dy":-5},{"dx":2,"dy":-3},{"dx":1,"dy":-2},{"dx":3,"dy":-3},{"dx":2,"dy":-4},{"dx":0,"dy":-1},{"dx":4,"dy":-4},{"dx":0,"dy":-2},{"dx":3,"dy":-4},{"dx":1,"dy":-1},{"dx":1,"dy":-3},{"dx":1,"dy":-1},{"dx":0,"dy":-2},{"dx":1,"dy":-1},{"dx":0,"dy":-1},{"dx":1,"dy":-2},{"dx":2,"dy":-4},{"dx":0,"dy":0},{"dx":2,"dy":-4},{"dx":2,"dy":-4},{"dx":0,"dy":0},{"dx":1,"dy":-3},{"dx":2,"dy":-4},{"dx":1,"dy":0},{"dx":0,"dy":-2},{"dx":2,"dy":-6},{"dx":0,"dy":0},{"dx":1,"dy":-2},{"dx":0,"dy":-1}],"trial_type":"plugin-moving-dots-2","trial_index":6,"plugin_version":"0.0.1","time_elapsed":32761},{"task":"fixation","rt":2229,"stimulus":"<div style=\"font-size:60px;\">+</div>","response":" ","trial_type":"html-keyboard-response","trial_index":7,"plugin_version":"2.1.0","time_elapsed":34991},{"task":"movingdots","control_change":0,"mouse_data":[{"dx":0,"dy":0},{"dx":0,"dy":0},{"dx":0,"dy":0},{"dx":0,"dy":0},{"dx":0,"dy":0},{"dx":0,"dy":0},{"dx":0,"dy":0},{"dx":0,"dy":0},{"dx":0,"dy":0},{"dx":0,"dy":0},{"dx":0,"dy":0},{"dx":0,"dy":0},{"dx":0,"dy":0},{"dx":0,"dy":0},{"dx":0,"dy":0},{"dx":0,"dy":0},{"dx":0,"dy":0},{"dx":0,"dy":0},{"dx":0,"dy":0},{"dx":0,"dy":0},{"dx":0,"dy":0},{"dx":0,"dy":0},{"dx":0,"dy":0},{"dx":0,"dy":0},{"dx":0,"dy":0},{"dx":0,"dy":0},{"dx":0,"dy":0},{"dx":0,"dy":0},{"dx":0,"dy":0},{"dx":0,"dy":0},{"dx":0,"dy":0},{"dx":0,"dy":0},{"dx":0,"dy":0},{"dx":0,"dy":0},{"dx":0,"dy":0},{"dx":0,"dy":0},{"dx":0,"dy":0},{"dx":0,"dy":0},{"dx":0,"dy":0},{"dx":0,"dy":0},{"dx":0,"dy":0},{"dx":0,"dy":0},{"dx":0,"dy":0},{"dx":0,"dy":0},{"dx":0,"dy":0},{"dx":0,"dy":0},{"dx":0,"dy":-5},{"dx":-1,"dy":-1},{"dx":-1,"dy":-6},{"dx":-2,"dy":-5},{"dx":-1,"dy":-1},{"dx":-2,"dy":-4},{"dx":-3,"dy":-7},{"dx":-2,"dy":-6},{"dx":-1,"dy":-5},{"dx":-2,"dy":-6},{"dx":-3,"dy":-6},{"dx":-2,"dy":-5},{"dx":-2,"dy":-5},{"dx":-2,"dy":-4},{"dx":-4,"dy":-6},{"dx":0,"dy":-1},{"dx":-3,"dy":-6},{"dx":-3,"dy":-5},{"dx":-2,"dy":-4},{"dx":-3,"dy":-5},{"dx":-4,"dy":-3},{"dx":0,"dy":-2},{"dx":-1,"dy":-1},{"dx":-1,"dy":0},{"dx":0,"dy":-1},{"dx":0,"dy":0},{"dx":-1,"dy":-1},{"dx":-1,"dy":-1},{"dx":-1,"dy":-2},{"dx":-1,"dy":0},{"dx":0,"dy":-1},{"dx":-1,"dy":-2},{"dx":-1,"dy":-1},{"dx":0,"dy":0},{"dx":0,"dy":-1},{"dx":0,"dy":-1},{"dx":-1,"dy":-2},{"dx":0,"dy":-1},{"dx":0,"dy":-2},{"dx":0,"dy":-2},{"dx":0,"dy":-2},{"dx":0,"dy":-1},{"dx":0,"dy":-2},{"dx":0,"dy":-1},{"dx":0,"dy":-3},{"dx":0,"dy":-2},{"dx":0,"dy":-1},{"dx":0,"dy":-7},{"dx":0,"dy":0},{"dx":-1,"dy":-1},{"dx":-2,"dy":-5},{"dx":-1,"dy":-1},{"dx":-2,"dy":-5},{"dx":0,"dy":-1},{"dx":0,"dy":-1},{"dx":-1,"dy":-2},{"dx":-1,"dy":-3},{"dx":-2,"dy":-4},{"dx":0,"dy":-1},{"dx":0,"dy":-2},{"dx":-1,"dy":-2},{"dx":0,"dy":-1},{"dx":0,"dy":-3},{"dx":0,"dy":-2},{"dx":-1,"dy":-2},{"dx":0,"dy":-2},{"dx":-1,"dy":-1},{"dx":0,"dy":-2},{"dx":-1,"dy":-2},{"dx":0,"dy":-1},{"dx":-1,"dy":-2},{"dx":0,"dy":-2},{"dx":-1,"dy":-1},{"dx":0,"dy":-1},{"dx":-1,"dy":-2},{"dx":0,"dy":-1},{"dx":-1,"dy":-1},{"dx":-1,"dy":-2},{"dx":0,"dy":-2},{"dx":0,"dy":-1},{"dx":0,"dy":-2},{"dx":0,"dy":-1},{"dx":-1,"dy":-2},{"dx":0,"dy":-2},{"dx":0,"dy":-1},{"dx":0,"dy":-1},{"dx":-1,"dy":-2},{"dx":0,"dy":-2},{"dx":-1,"dy":-2},{"dx":0,"dy":-2},{"dx":0,"dy":-2},{"dx":-1,"dy":-1},{"dx":-1,"dy":-3},{"dx":0,"dy":-1},{"dx":0,"dy":-1},{"dx":-1,"dy":-1},{"dx":0,"dy":-1},{"dx":-1,"dy":-1},{"dx":-1,"dy":-2},{"dx":0,"dy":-1},{"dx":-1,"dy":-1},{"dx":0,"dy":-2},{"dx":-1,"dy":-1},{"dx":-1,"dy":-1},{"dx":-1,"dy":-1},{"dx":0,"dy":-1},{"dx":-1,"dy":-1},{"dx":-1,"dy":-2},{"dx":0,"dy":-1},{"dx":0,"dy":-1},{"dx":-1,"dy":-1},{"dx":-1,"dy":-2},{"dx":0,"dy":-1},{"dx":-1,"dy":-2},{"dx":-1,"dy":-1},{"dx":-1,"dy":-1},{"dx":-1,"dy":-1},{"dx":-1,"dy":-1},{"dx":-1,"dy":-2},{"dx":-1,"dy":-1},{"dx":-2,"dy":0},{"dx":-1,"dy":-2},{"dx":-2,"dy":-1},{"dx":-4,"dy":-3},{"dx":0,"dy":-1},{"dx":-5,"dy":-3},{"dx":-1,"dy":0},{"dx":-4,"dy":-2},{"dx":-5,"dy":-2},{"dx":-6,"dy":-3},{"dx":-3,"dy":-1},{"dx":-5,"dy":-2},{"dx":-6,"dy":-2},{"dx":-4,"dy":-1},{"dx":-8,"dy":-2},{"dx":-5,"dy":-1},{"dx":-4,"dy":-1},{"dx":-5,"dy":-1},{"dx":-6,"dy":-1},{"dx":-5,"dy":0},{"dx":-8,"dy":0},{"dx":-5,"dy":0},{"dx":-4,"dy":0},{"dx":-5,"dy":1},{"dx":-4,"dy":1},{"dx":-5,"dy":1},{"dx":-9,"dy":2},{"dx":-5,"dy":2},{"dx":0,"dy":1},{"dx":-5,"dy":2},{"dx":-4,"dy":2},{"dx":-4,"dy":3},{"dx":-8,"dy":7},{"dx":-4,"dy":4},{"dx":-4,"dy":4},{"dx":-4,"dy":4},{"dx":-3,"dy":3},{"dx":-2,"dy":3},{"dx":-2,"dy":6},{"dx":-5,"dy":8},{"dx":-1,"dy":1},{"dx":-1,"dy":5},{"dx":-2,"dy":5},{"dx":-1,"dy":6},{"dx":-1,"dy":4},{"dx":-2,"dy":10},{"dx":-1,"dy":5},{"dx":-1,"dy":5},{"dx":-2,"dy":7},{"dx":-1,"dy":5},{"dx":-2,"dy":7},{"dx":0,"dy":5},{"dx":-2,"dy":7},{"dx":-1,"dy":6},{"dx":-1,"dy":1},{"dx":-2,"dy":6},{"dx":-1,"dy":4},{"dx":-2,"dy":6},{"dx":-2,"dy":8},{"dx":-1,"dy":5},{"dx":-1,"dy":8},{"dx":0,"dy":0},{"dx":-1,"dy":5},{"dx":-1,"dy":7},{"dx":-1,"dy":5},{"dx":-1,"dy":6},{"dx":0,"dy":6},{"dx":0,"dy":5},{"dx":0,"dy":7},{"dx":-1,"dy":5},{"dx":0,"dy":1},{"dx":-2,"dy":4},{"dx":-2,"dy":5},{"dx":0,"dy":2},{"dx":-1,"dy":4},{"dx":0,"dy":1},{"dx":0,"dy":1},{"dx":0,"dy":2},{"dx":0,"dy":5},{"dx":0,"dy":1},{"dx":0,"dy":1},{"dx":0,"dy":2},{"dx":0,"dy":1},{"dx":0,"dy":3},{"dx":0,"dy":2},{"dx":0,"dy":1},{"dx":0,"dy":1},{"dx":0,"dy":7},{"dx":1,"dy":1},{"dx":1,"dy":5},{"dx":4,"dy":10},{"dx":3,"dy":7},{"dx":2,"dy":5},{"dx":2,"dy":6},{"dx":3,"dy":5},{"dx":3,"dy":6},{"dx":2,"dy":3},{"dx":1,"dy":5},{"dx":0,"dy":7},{"dx":-1,"dy":6},{"dx":-3,"dy":4},{"dx":-3,"dy":3},{"dx":-11,"dy":9},{"dx":-6,"dy":4},{"dx":-4,"dy":4},{"dx":-5,"dy":6},{"dx":-6,"dy":6},{"dx":-6,"dy":6},{"dx":-9,"dy":9},{"dx":-4,"dy":4},{"dx":-4,"dy":4},{"dx":-4,"dy":3},{"dx":-3,"dy":2},{"dx":-5,"dy":3},{"dx":-1,"dy":1},{"dx":-4,"dy":2},{"dx":0,"dy":0},{"dx":-1,"dy":1},{"dx":-1,"dy":0},{"dx":-1,"dy":1},{"dx":0,"dy":0},{"dx":-1,"dy":0},{"dx":0,"dy":0},{"dx":0,"dy":0},{"dx":0,"dy":0},{"dx":0,"dy":0},{"dx":-5,"dy":-2},{"dx":-5,"dy":-2},{"dx":-4,"dy":-4},{"dx":-5,"dy":-3},{"dx":-3,"dy":-4},{"dx":0,"dy":-1},{"dx":-4,"dy":-4},{"dx":-1,"dy":-1},{"dx":-3,"dy":-4},{"dx":-3,"dy":-4},{"dx":-3,"dy":-5},{"dx":-2,"dy":-5},{"dx":-3,"dy":-4},{"dx":-3,"dy":-4},{"dx":-3,"dy":-4},{"dx":-3,"dy":-6},{"dx":-4,"dy":-5},{"dx":-2,"dy":-4},{"dx":-4,"dy":-5},{"dx":-3,"dy":-4},{"dx":-3,"dy":-4},{"dx":-7,"dy":-7},{"dx":-3,"dy":-4},{"dx":-4,"dy":-2},{"dx":-3,"dy":-4},{"dx":-5,"dy":-4},{"dx":-3,"dy":-5},{"dx":-3,"dy":-4},{"dx":-4,"dy":-4},{"dx":-3,"dy":-5},{"dx":-1,"dy":-1},{"dx":-2,"dy":-4},{"dx":0,"dy":-1},{"dx":-1,"dy":-6},{"dx":-1,"dy":-2},{"dx":0,"dy":-5},{"dx":-1,"dy":-6},{"dx":-1,"dy":-7},{"dx":-1,"dy":-6},{"dx":0,"dy":-4},{"dx":-1,"dy":-6},{"dx":0,"dy":-7},{"dx":-1,"dy":-7},{"dx":-1,"dy":-5},{"dx":-2,"dy":-5},{"dx":-1,"dy":-7},{"dx":-2,"dy":-5},{"dx":-3,"dy":-5},{"dx":-1,"dy":-2},{"dx":-2,"dy":-4},{"dx":-1,"dy":0},{"dx":-1,"dy":-2},{"dx":-1,"dy":-1},{"dx":-2,"dy":-4},{"dx":0,"dy":-2},{"dx":-1,"dy":-1},{"dx":0,"dy":-1},{"dx":-1,"dy":-2},{"dx":-1,"dy":-6},{"dx":0,"dy":-1},{"dx":0,"dy":-6},{"dx":-1,"dy":-1},{"dx":0,"dy":-2},{"dx":0,"dy":-4},{"dx":0,"dy":-1},{"dx":-1,"dy":-2},{"dx":0,"dy":-6},{"dx":-1,"dy":-1},{"dx":0,"dy":-1},{"dx":0,"dy":-2},{"dx":-1,"dy":-2},{"dx":0,"dy":-2},{"dx":0,"dy":-2},{"dx":0,"dy":-2},{"dx":0,"dy":-6},{"dx":0,"dy":0},{"dx":-1,"dy":-2},{"dx":0,"dy":-2},{"dx":0,"dy":-1},{"dx":0,"dy":-3},{"dx":-1,"dy":-1},{"dx":0,"dy":-2},{"dx":0,"dy":-2},{"dx":-1,"dy":-5},{"dx":0,"dy":-1},{"dx":0,"dy":-2},{"dx":0,"dy":-1},{"dx":0,"dy":-2},{"dx":0,"dy":-3},{"dx":0,"dy":-1},{"dx":0,"dy":-2},{"dx":0,"dy":-2},{"dx":0,"dy":-1},{"dx":0,"dy":-2},{"dx":0,"dy":-1},{"dx":0,"dy":-1},{"dx":0,"dy":-1},{"dx":0,"dy":-1},{"dx":0,"dy":-1},{"dx":1,"dy":-1},{"dx":1,"dy":-2},{"dx":3,"dy":-4},{"dx":0,"dy":-1},{"dx":3,"dy":-4},{"dx":1,"dy":-1},{"dx":2,"dy":-4},{"dx":3,"dy":-3},{"dx":3,"dy":-6},{"dx":1,"dy":0},{"dx":5,"dy":-9},{"dx":0,"dy":-1},{"dx":4,"dy":-3},{"dx":3,"dy":-6},{"dx":3,"dy":-4},{"dx":4,"dy":-5},{"dx":3,"dy":-4},{"dx":3,"dy":-5},{"dx":3,"dy":-4},{"dx":6,"dy":-9},{"dx":0,"dy":0},{"dx":4,"dy":-4},{"dx":3,"dy":-4},{"dx":4,"dy":-3},{"dx":1,"dy":-1},{"dx":4,"dy":-3},{"dx":5,"dy":-3},{"dx":2,"dy":-3},{"dx":4,"dy":-2},{"dx":0,"dy":-1},{"dx":4,"dy":-2},{"dx":1,"dy":-1},{"dx":1,"dy":-1},{"dx":4,"dy":-1},{"dx":1,"dy":-1},{"dx":4,"dy":-3},{"dx":0,"dy":0},{"dx":1,"dy":-1},{"dx":5,"dy":-2},{"dx":1,"dy":0},{"dx":5,"dy":-2},{"dx":1,"dy":-1},{"dx":4,"dy":-1},{"dx":1,"dy":0},{"dx":4,"dy":-1},{"dx":0,"dy":-1},{"dx":5,"dy":-1},{"dx":1,"dy":0},{"dx":1,"dy":0},{"dx":4,"dy":-1},{"dx":4,"dy":-1},{"dx":1,"dy":0},{"dx":5,"dy":0},{"dx":1,"dy":0},{"dx":1,"dy":0},{"dx":4,"dy":0},{"dx":1,"dy":0},{"dx":4,"dy":0},{"dx":0,"dy":0},{"dx":2,"dy":0},{"dx":4,"dy":0},{"dx":5,"dy":0}],"trial_type":"plugin-moving-dots-2","trial_index":8,"plugin_version":"0.0.1","time_elapsed":42511},{"task":"fixation","rt":1918,"stimulus":"<div style=\"font-size:60px;\">+</div>","response":" ","trial_type":"html-keyboard-response","trial_index":9,"plugin_version":"2.1.0","time_elapsed":44431},{"task":"movingdots","control_change":0,"mouse_data":[{"dx":0,"dy":0},{"dx":0,"dy":0},{"dx":0,"dy":0},{"dx":0,"dy":0},{"dx":0,"dy":0},{"dx":0,"dy":0},{"dx":0,"dy":0},{"dx":0,"dy":0},{"dx":0,"dy":0},{"dx":0,"dy":0},{"dx":0,"dy":0},{"dx":0,"dy":0},{"dx":0,"dy":0},{"dx":0,"dy":0},{"dx":0,"dy":0},{"dx":0,"dy":0},{"dx":0,"dy":0},{"dx":0,"dy":0},{"dx":0,"dy":0},{"dx":0,"dy":0},{"dx":0,"dy":0},{"dx":0,"dy":0},{"dx":0,"dy":0},{"dx":0,"dy":0},{"dx":0,"dy":0},{"dx":0,"dy":0},{"dx":0,"dy":0},{"dx":0,"dy":0},{"dx":0,"dy":0},{"dx":0,"dy":0},{"dx":0,"dy":0},{"dx":0,"dy":-1},{"dx":1,"dy":-5},{"dx":0,"dy":-6},{"dx":1,"dy":-6},{"dx":1,"dy":-1},{"dx":1,"dy":-4},{"dx":0,"dy":-2},{"dx":0,"dy":-1},{"dx":1,"dy":-2},{"dx":0,"dy":-1},{"dx":0,"dy":-1},{"dx":0,"dy":-1},{"dx":1,"dy":-1},{"dx":0,"dy":-1},{"dx":0,"dy":-1},{"dx":0,"dy":-1},{"dx":1,"dy":-1},{"dx":0,"dy":-1},{"dx":0,"dy":-1},{"dx":0,"dy":-1},{"dx":0,"dy":-2},{"dx":1,"dy":-1},{"dx":0,"dy":-2},{"dx":0,"dy":-1},{"dx":1,"dy":-1},{"dx":0,"dy":-3},{"dx":2,"dy":-5},{"dx":0,"dy":-1},{"dx":0,"dy":-2},{"dx":2,"dy":-6},{"dx":0,"dy":0},{"dx":0,"dy":-2},{"dx":0,"dy":-1},{"dx":0,"dy":-1},{"dx":1,"dy":-2},{"dx":0,"dy":-1},{"dx":0,"dy":-1},{"dx":0,"dy":-2},{"dx":0,"dy":-1},{"dx":1,"dy":-2},{"dx":0,"dy":-3},{"dx":0,"dy":-1},{"dx":1,"dy":-2},{"dx":0,"dy":-2},{"dx":0,"dy":-1},{"dx":0,"dy":-1},{"dx":0,"dy":-2},{"dx":0,"dy":-1},{"dx":0,"dy":-1},{"dx":1,"dy":0},{"dx":0,"dy":-1},{"dx":0,"dy":-1},{"dx":0,"dy":-1},{"dx":0,"dy":-1},{"dx":0,"dy":0},{"dx":0,"dy":-1},{"dx":0,"dy":-1},{"dx":0,"dy":-1},{"dx":1,"dy":-1},{"dx":0,"dy":-1},{"dx":0,"dy":-2},{"dx":0,"dy":-2},{"dx":0,"dy":-1},{"dx":0,"dy":-1},{"dx":0,"dy":-2},{"dx":0,"dy":0},{"dx":1,"dy":-1},{"dx":0,"dy":-1},{"dx":0,"dy":-1},{"dx":0,"dy":-1},{"dx":0,"dy":-2},{"dx":0,"dy":0},{"dx":0,"dy":-1},{"dx":0,"dy":-1},{"dx":0,"dy":-1},{"dx":1,"dy":-1},{"dx":0,"dy":-1},{"dx":0,"dy":-1},{"dx":0,"dy":0},{"dx":0,"dy":-1},{"dx":0,"dy":0},{"dx":0,"dy":-1},{"dx":0,"dy":-2},{"dx":1,"dy":-1},{"dx":0,"dy":-1},{"dx":0,"dy":-1},{"dx":0,"dy":-1},{"dx":1,"dy":0},{"dx":0,"dy":-2},{"dx":0,"dy":-1},{"dx":0,"dy":-1},{"dx":0,"dy":-1},{"dx":0,"dy":0},{"dx":1,"dy":0},{"dx":0,"dy":-1},{"dx":0,"dy":-1},{"dx":1,"dy":-1},{"dx":0,"dy":-2},{"dx":0,"dy":-1},{"dx":0,"dy":0},{"dx":1,"dy":-1},{"dx":0,"dy":0},{"dx":1,"dy":-1},{"dx":0,"dy":-1},{"dx":1,"dy":-1},{"dx":0,"dy":-1},{"dx":0,"dy":0},{"dx":0,"dy":0},{"dx":0,"dy":0},{"dx":0,"dy":0},{"dx":1,"dy":-2},{"dx":0,"dy":-1},{"dx":1,"dy":-1},{"dx":0,"dy":0},{"dx":0,"dy":0},{"dx":0,"dy":0},{"dx":1,"dy":-1},{"dx":0,"dy":-1},{"dx":2,"dy":-2},{"dx":0,"dy":-2},{"dx":0,"dy":0},{"dx":1,"dy":-1},{"dx":0,"dy":0},{"dx":0,"dy":0},{"dx":1,"dy":-1},{"dx":0,"dy":-1},{"dx":1,"dy":-1},{"dx":0,"dy":-2},{"dx":1,"dy":-1},{"dx":1,"dy":-1},{"dx":1,"dy":-2},{"dx":0,"dy":-1},{"dx":1,"dy":-1},{"dx":0,"dy":-2},{"dx":1,"dy":-1},{"dx":0,"dy":-1},{"dx":1,"dy":-2},{"dx":1,"dy":-1},{"dx":1,"dy":-1},{"dx":1,"dy":-2},{"dx":0,"dy":-1},{"dx":0,"dy":-1},{"dx":1,"dy":-1},{"dx":0,"dy":-1},{"dx":0,"dy":0},{"dx":1,"dy":-2},{"dx":1,"dy":-2},{"dx":2,"dy":-5},{"dx":1,"dy":-1},{"dx":2,"dy":-5},{"dx":3,"dy":-6},{"dx":4,"dy":-6},{"dx":4,"dy":-5},{"dx":3,"dy":-5},{"dx":6,"dy":-7},{"dx":4,"dy":-5},{"dx":4,"dy":-5},{"dx":4,"dy":-5},{"dx":2,"dy":-2},{"dx":4,"dy":-3},{"dx":8,"dy":-6},{"dx":5,"dy":-3},{"dx":4,"dy":-3},{"dx":6,"dy":-2},{"dx":7,"dy":-2},{"dx":7,"dy":-1},{"dx":13,"dy":-3},{"dx":7,"dy":-1},{"dx":7,"dy":-1},{"dx":9,"dy":-1},{"dx":6,"dy":0},{"dx":7,"dy":0},{"dx":7,"dy":0},{"dx":20,"dy":4},{"dx":9,"dy":2},{"dx":9,"dy":3},{"dx":12,"dy":4},{"dx":10,"dy":5},{"dx":9,"dy":5},{"dx":10,"dy":9},{"dx":5,"dy":4},{"dx":6,"dy":5},{"dx":6,"dy":5},{"dx":4,"dy":4},{"dx":4,"dy":4},{"dx":7,"dy":8},{"dx":3,"dy":3},{"dx":2,"dy":4},{"dx":3,"dy":4},{"dx":3,"dy":5},{"dx":0,"dy":1},{"dx":3,"dy":4},{"dx":2,"dy":3},{"dx":1,"dy":1},{"dx":2,"dy":6},{"dx":0,"dy":0},{"dx":0,"dy":1},{"dx":-1,"dy":5},{"dx":0,"dy":1},{"dx":-3,"dy":4},{"dx":-9,"dy":12},{"dx":-4,"dy":4},{"dx":-4,"dy":5},{"dx":-12,"dy":12},{"dx":-2,"dy":3},{"dx":-1,"dy":0},{"dx":-4,"dy":4},{"dx":-4,"dy":2},{"dx":0,"dy":0},{"dx":-5,"dy":3},{"dx":-2,"dy":0},{"dx":-1,"dy":1},{"dx":-4,"dy":1},{"dx":-6,"dy":0},{"dx":0,"dy":0},{"dx":-6,"dy":1},{"dx":-3,"dy":0},{"dx":-2,"dy":0},{"dx":-1,"dy":0},{"dx":-5,"dy":0},{"dx":-1,"dy":0},{"dx":-6,"dy":-2},{"dx":-5,"dy":-1},{"dx":-2,"dy":0},{"dx":-4,"dy":-2},{"dx":-4,"dy":-3},{"dx":-1,"dy":0},{"dx":-9,"dy":-6},{"dx":-3,"dy":-3},{"dx":-4,"dy":-3},{"dx":-4,"dy":-4},{"dx":-5,"dy":-5},{"dx":-4,"dy":-5},{"dx":-8,"dy":-8},{"dx":-3,"dy":-4},{"dx":-5,"dy":-3},{"dx":-4,"dy":-4},{"dx":-3,"dy":-3},{"dx":-4,"dy":-3},{"dx":-6,"dy":-6},{"dx":-4,"dy":-4},{"dx":-4,"dy":-4},{"dx":-6,"dy":-5},{"dx":-7,"dy":-4},{"dx":-6,"dy":-5},{"dx":-10,"dy":-7},{"dx":-5,"dy":-4},{"dx":-4,"dy":-3},{"dx":-6,"dy":-4},{"dx":-6,"dy":-5},{"dx":-6,"dy":-3},{"dx":-12,"dy":-5},{"dx":-6,"dy":-2},{"dx":-6,"dy":-1},{"dx":-12,"dy":-3},{"dx":-10,"dy":-2},{"dx":-9,"dy":-2},{"dx":-6,"dy":0},{"dx":-15,"dy":-3},{"dx":-8,"dy":-1},{"dx":-8,"dy":-1},{"dx":-6,"dy":-1},{"dx":-8,"dy":0},{"dx":-7,"dy":-1},{"dx":-12,"dy":-1},{"dx":-8,"dy":0},{"dx":-7,"dy":0},{"dx":-9,"dy":0},{"dx":-6,"dy":0},{"dx":-9,"dy":1},{"dx":-5,"dy":0},{"dx":-5,"dy":0},{"dx":-5,"dy":0},{"dx":-5,"dy":1},{"dx":-5,"dy":0},{"dx":-5,"dy":1},{"dx":-12,"dy":3},{"dx":-8,"dy":2},{"dx":-6,"dy":2},{"dx":-6,"dy":3},{"dx":-4,"dy":2},{"dx":-6,"dy":2},{"dx":-12,"dy":6},{"dx":-7,"dy":4},{"dx":-8,"dy":4},{"dx":-9,"dy":4},{"dx":-8,"dy":5},{"dx":-5,"dy":3},{"dx":-9,"dy":5},{"dx":-4,"dy":3},{"dx":-3,"dy":3},{"dx":-4,"dy":4},{"dx":-6,"dy":5},{"dx":-6,"dy":5},{"dx":-11,"dy":10},{"dx":-4,"dy":5},{"dx":-3,"dy":3},{"dx":-4,"dy":5},{"dx":-4,"dy":4},{"dx":-3,"dy":4},{"dx":-6,"dy":8},{"dx":-3,"dy":5},{"dx":-2,"dy":4},{"dx":-4,"dy":5},{"dx":-1,"dy":4},{"dx":-3,"dy":6},{"dx":-2,"dy":6},{"dx":0,"dy":1},{"dx":-2,"dy":5},{"dx":0,"dy":1},{"dx":0,"dy":5},{"dx":0,"dy":0},{"dx":0,"dy":2},{"dx":0,"dy":6},{"dx":0,"dy":0},{"dx":1,"dy":6},{"dx":2,"dy":4},{"dx":2,"dy":6},{"dx":1,"dy":2},{"dx":2,"dy":5},{"dx":2,"dy":5},{"dx":3,"dy":3},{"dx":3,"dy":4},{"dx":0,"dy":1},{"dx":3,"dy":3},{"dx":1,"dy":0},{"dx":1,"dy":1},{"dx":4,"dy":2},{"dx":5,"dy":2},{"dx":1,"dy":0},{"dx":5,"dy":1},{"dx":5,"dy":1},{"dx":0,"dy":0},{"dx":6,"dy":1},{"dx":5,"dy":0},{"dx":1,"dy":0},{"dx":4,"dy":0},{"dx":1,"dy":0},{"dx":4,"dy":-1},{"dx":5,"dy":-5},{"dx":3,"dy":-3},{"dx":4,"dy":-4},{"dx":8,"dy":-7},{"dx":4,"dy":-3},{"dx":3,"dy":-3},{"dx":6,"dy":-4},{"dx":4,"dy":-3},{"dx":4,"dy":-3},{"dx":7,"dy":-6},{"dx":4,"dy":-4},{"dx":4,"dy":-5},{"dx":3,"dy":-4},{"dx":3,"dy":-4},{"dx":4,"dy":-4},{"dx":4,"dy":-4},{"dx":3,"dy":-4},{"dx":1,"dy":-1},{"dx":4,"dy":-4},{"dx":3,"dy":-3},{"dx":4,"dy":-4},{"dx":8,"dy":-7},{"dx":6,"dy":-4},{"dx":5,"dy":-3},{"dx":4,"dy":-3},{"dx":4,"dy":-3},{"dx":4,"dy":-1},{"dx":6,"dy":-3},{"dx":5,"dy":-1},{"dx":5,"dy":-2},{"dx":11,"dy":-2},{"dx":5,"dy":0},{"dx":5,"dy":-1},{"dx":6,"dy":0},{"dx":6,"dy":-1},{"dx":5,"dy":0},{"dx":9,"dy":-1},{"dx":0,"dy":0},{"dx":5,"dy":0},{"dx":0,"dy":0},{"dx":1,"dy":0},{"dx":4,"dy":0},{"dx":5,"dy":0},{"dx":6,"dy":1},{"dx":3,"dy":1},{"dx":6,"dy":1},{"dx":4,"dy":1},{"dx":4,"dy":1},{"dx":1,"dy":0},{"dx":4,"dy":2},{"dx":5,"dy":2},{"dx":6,"dy":1},{"dx":6,"dy":2},{"dx":4,"dy":0},{"dx":6,"dy":1},{"dx":5,"dy":0},{"dx":5,"dy":1},{"dx":5,"dy":1},{"dx":9,"dy":1},{"dx":6,"dy":1},{"dx":4,"dy":1},{"dx":5,"dy":0},{"dx":5,"dy":2},{"dx":5,"dy":1},{"dx":9,"dy":3},{"dx":4,"dy":2},{"dx":5,"dy":1},{"dx":3,"dy":1},{"dx":4,"dy":2},{"dx":5,"dy":2},{"dx":0,"dy":0},{"dx":1,"dy":0},{"dx":2,"dy":1},{"dx":4,"dy":1},{"dx":5,"dy":1},{"dx":0,"dy":0},{"dx":4,"dy":0},{"dx":5,"dy":1},{"dx":0,"dy":0},{"dx":6,"dy":0},{"dx":0,"dy":0},{"dx":4,"dy":0},{"dx":9,"dy":-3}],"trial_type":"plugin-moving-dots-2","trial_index":10,"plugin_version":"0.0.1","time_elapsed":51944},{"task":"fixation","rt":1477,"stimulus":"<div style=\"font-size:60px;\">+</div>","response":" ","trial_type":"html-keyboard-response","trial_index":11,"plugin_version":"2.1.0","time_elapsed":53423},{"task":"movingdots","control_change":0,"mouse_data":[{"dx":0,"dy":0},{"dx":0,"dy":0},{"dx":0,"dy":0},{"dx":0,"dy":0},{"dx":0,"dy":0},{"dx":0,"dy":0},{"dx":0,"dy":0},{"dx":0,"dy":0},{"dx":0,"dy":0},{"dx":0,"dy":0},{"dx":0,"dy":0},{"dx":0,"dy":0},{"dx":0,"dy":0},{"dx":0,"dy":0},{"dx":0,"dy":0},{"dx":0,"dy":0},{"dx":0,"dy":0},{"dx":0,"dy":0},{"dx":0,"dy":0},{"dx":0,"dy":0},{"dx":0,"dy":0},{"dx":0,"dy":0},{"dx":0,"dy":0},{"dx":0,"dy":0},{"dx":0,"dy":0},{"dx":0,"dy":0},{"dx":0,"dy":0},{"dx":0,"dy":0},{"dx":0,"dy":0},{"dx":0,"dy":0},{"dx":0,"dy":0},{"dx":0,"dy":0},{"dx":0,"dy":0},{"dx":0,"dy":0},{"dx":0,"dy":0},{"dx":0,"dy":0},{"dx":0,"dy":0},{"dx":0,"dy":0},{"dx":0,"dy":0},{"dx":0,"dy":0},{"dx":0,"dy":0},{"dx":0,"dy":0},{"dx":0,"dy":0},{"dx":0,"dy":0},{"dx":0,"dy":0},{"dx":0,"dy":0},{"dx":0,"dy":0},{"dx":0,"dy":0},{"dx":0,"dy":0},{"dx":0,"dy":0},{"dx":0,"dy":0},{"dx":0,"dy":0},{"dx":0,"dy":0},{"dx":0,"dy":0},{"dx":0,"dy":0},{"dx":0,"dy":0},{"dx":0,"dy":0},{"dx":0,"dy":0},{"dx":0,"dy":0},{"dx":0,"dy":0},{"dx":0,"dy":0},{"dx":0,"dy":0},{"dx":0,"dy":0},{"dx":0,"dy":0},{"dx":0,"dy":0},{"dx":0,"dy":0},{"dx":0,"dy":0},{"dx":0,"dy":0},{"dx":0,"dy":0},{"dx":0,"dy":0},{"dx":0,"dy":0},{"dx":0,"dy":0},{"dx":0,"dy":0},{"dx":0,"dy":0},{"dx":0,"dy":0},{"dx":0,"dy":0},{"dx":0,"dy":0},{"dx":0,"dy":0},{"dx":0,"dy":0},{"dx":0,"dy":0},{"dx":0,"dy":0},{"dx":0,"dy":0},{"dx":0,"dy":0},{"dx":0,"dy":0},{"dx":0,"dy":0},{"dx":0,"dy":0},{"dx":0,"dy":0},{"dx":0,"dy":0},{"dx":0,"dy":0},{"dx":2,"dy":0},{"dx":2,"dy":-2},{"dx":1,"dy":-1},{"dx":0,"dy":-1},{"dx":0,"dy":0},{"dx":1,"dy":0},{"dx":0,"dy":0},{"dx":0,"dy":0},{"dx":0,"dy":0},{"dx":0,"dy":-1},{"dx":0,"dy":0},{"dx":0,"dy":0},{"dx":0,"dy":0},{"dx":0,"dy":0},{"dx":0,"dy":0},{"dx":0,"dy":0},{"dx":0,"dy":0},{"dx":0,"dy":0},{"dx":0,"dy":0},{"dx":0,"dy":0},{"dx":0,"dy":0},{"dx":0,"dy":0},{"dx":0,"dy":0},{"dx":0,"dy":0},{"dx":0,"dy":0},{"dx":0,"dy":0},{"dx":0,"dy":0},{"dx":0,"dy":0},{"dx":0,"dy":0},{"dx":0,"dy":0},{"dx":0,"dy":0},{"dx":0,"dy":0},{"dx":0,"dy":0},{"dx":0,"dy":0},{"dx":0,"dy":0},{"dx":0,"dy":0},{"dx":0,"dy":0},{"dx":0,"dy":0},{"dx":0,"dy":0},{"dx":0,"dy":0},{"dx":0,"dy":0},{"dx":0,"dy":0},{"dx":0,"dy":0},{"dx":0,"dy":0},{"dx":0,"dy":0},{"dx":0,"dy":0},{"dx":0,"dy":0},{"dx":0,"dy":0},{"dx":0,"dy":0},{"dx":0,"dy":0},{"dx":0,"dy":0},{"dx":3,"dy":-3},{"dx":5,"dy":-4},{"dx":6,"dy":-4},{"dx":5,"dy":-4},{"dx":4,"dy":-3},{"dx":1,"dy":-1},{"dx":0,"dy":-1},{"dx":1,"dy":0},{"dx":8,"dy":-6},{"dx":1,"dy":0},{"dx":4,"dy":-3},{"dx":11,"dy":-6},{"dx":10,"dy":-4},{"dx":12,"dy":-4},{"dx":24,"dy":-10},{"dx":15,"dy":-6},{"dx":9,"dy":-5},{"dx":11,"dy":-6},{"dx":6,"dy":-2},{"dx":4,"dy":-1},{"dx":5,"dy":-3},{"dx":5,"dy":-3},{"dx":5,"dy":-2},{"dx":4,"dy":-4},{"dx":5,"dy":-2},{"dx":5,"dy":-2},{"dx":15,"dy":-6},{"dx":9,"dy":-4},{"dx":9,"dy":-3},{"dx":18,"dy":-6},{"dx":13,"dy":-4},{"dx":14,"dy":-5},{"dx":20,"dy":-5},{"dx":11,"dy":-4},{"dx":10,"dy":-3},{"dx":10,"dy":-3},{"dx":4,"dy":-1},{"dx":4,"dy":0},{"dx":5,"dy":0},{"dx":5,"dy":0},{"dx":4,"dy":1},{"dx":11,"dy":6},{"dx":6,"dy":5},{"dx":6,"dy":5},{"dx":7,"dy":6},{"dx":10,"dy":10},{"dx":5,"dy":7},{"dx":8,"dy":14},{"dx":5,"dy":10},{"dx":4,"dy":9},{"dx":5,"dy":16},{"dx":2,"dy":11},{"dx":1,"dy":8},{"dx":1,"dy":5},{"dx":0,"dy":6},{"dx":2,"dy":4},{"dx":0,"dy":1},{"dx":0,"dy":5},{"dx":0,"dy":2},{"dx":0,"dy":1},{"dx":0,"dy":4},{"dx":-1,"dy":5},{"dx":-2,"dy":6},{"dx":-3,"dy":6},{"dx":-7,"dy":12},{"dx":-5,"dy":7},{"dx":-4,"dy":4},{"dx":-5,"dy":3},{"dx":-4,"dy":3},{"dx":-4,"dy":2},{"dx":-4,"dy":3},{"dx":-6,"dy":2},{"dx":-5,"dy":2},{"dx":-5,"dy":1},{"dx":-9,"dy":1},{"dx":-5,"dy":0},{"dx":-6,"dy":0},{"dx":-7,"dy":-1},{"dx":-6,"dy":-1},{"dx":-6,"dy":-2},{"dx":-5,"dy":-2},{"dx":-5,"dy":-2},{"dx":-5,"dy":-3},{"dx":-4,"dy":-2},{"dx":-6,"dy":-6},{"dx":-3,"dy":-4},{"dx":-4,"dy":-4},{"dx":-4,"dy":-4},{"dx":-5,"dy":-5},{"dx":-5,"dy":-5},{"dx":-7,"dy":-7},{"dx":-3,"dy":-5},{"dx":-3,"dy":-3},{"dx":-3,"dy":-4},{"dx":-3,"dy":-4},{"dx":-2,"dy":-5},{"dx":-2,"dy":-5},{"dx":-2,"dy":-6},{"dx":0,"dy":-1},{"dx":-3,"dy":-6},{"dx":-2,"dy":-6},{"dx":0,"dy":-1},{"dx":-1,"dy":-4},{"dx":-1,"dy":-6},{"dx":0,"dy":0},{"dx":1,"dy":-6},{"dx":2,"dy":-6},{"dx":3,"dy":-5},{"dx":4,"dy":-5},{"dx":5,"dy":-4},{"dx":13,"dy":-9},{"dx":16,"dy":-6},{"dx":11,"dy":-5},{"dx":5,"dy":-1},{"dx":12,"dy":-3},{"dx":5,"dy":-1},{"dx":6,"dy":-1},{"dx":6,"dy":0},{"dx":15,"dy":1},{"dx":11,"dy":2},{"dx":13,"dy":5},{"dx":10,"dy":3},{"dx":10,"dy":5},{"dx":10,"dy":6},{"dx":5,"dy":3},{"dx":3,"dy":3},{"dx":4,"dy":4},{"dx":3,"dy":4},{"dx":3,"dy":3},{"dx":3,"dy":5},{"dx":3,"dy":4},{"dx":2,"dy":6},{"dx":1,"dy":6},{"dx":2,"dy":6},{"dx":0,"dy":6},{"dx":-1,"dy":10},{"dx":-2,"dy":6},{"dx":-2,"dy":6},{"dx":-3,"dy":7},{"dx":-3,"dy":4},{"dx":-2,"dy":5},{"dx":-4,"dy":10},{"dx":-4,"dy":4},{"dx":-4,"dy":5},{"dx":-4,"dy":5},{"dx":-4,"dy":4},{"dx":-4,"dy":4},{"dx":-7,"dy":6},{"dx":-4,"dy":4},{"dx":-4,"dy":2},{"dx":-4,"dy":3},{"dx":-5,"dy":3},{"dx":-4,"dy":1},{"dx":-8,"dy":2},{"dx":-1,"dy":0},{"dx":-5,"dy":0},{"dx":-5,"dy":0},{"dx":-10,"dy":-2},{"dx":-5,"dy":-1},{"dx":-6,"dy":-2},{"dx":-1,"dy":0},{"dx":-5,"dy":-2},{"dx":-4,"dy":-2},{"dx":-9,"dy":-2},{"dx":-4,"dy":-1},{"dx":-5,"dy":-2},{"dx":-1,"dy":0},{"dx":-4,"dy":-2},{"dx":-5,"dy":-2},{"dx":-1,"dy":0},{"dx":-6,"dy":-2},{"dx":-4,"dy":-1},{"dx":-5,"dy":0},{"dx":-5,"dy":0},{"dx":-5,"dy":0},{"dx":-3,"dy":0},{"dx":-4,"dy":0},{"dx":-5,"dy":2},{"dx":-5,"dy":2},{"dx":-4,"dy":1},{"dx":-14,"dy":10},{"dx":-8,"dy":7},{"dx":-7,"dy":5},{"dx":-6,"dy":4},{"dx":-6,"dy":4},{"dx":-5,"dy":3},{"dx":-12,"dy":8},{"dx":-7,"dy":4},{"dx":-6,"dy":5},{"dx":-6,"dy":6},{"dx":-3,"dy":3},{"dx":-4,"dy":5},{"dx":-2,"dy":3},{"dx":-3,"dy":4},{"dx":0,"dy":1},{"dx":-2,"dy":4},{"dx":-2,"dy":6},{"dx":-2,"dy":6},{"dx":-1,"dy":5},{"dx":-3,"dy":9},{"dx":-2,"dy":5},{"dx":-2,"dy":4},{"dx":0,"dy":2},{"dx":-1,"dy":5},{"dx":0,"dy":1},{"dx":1,"dy":6},{"dx":0,"dy":1},{"dx":3,"dy":4},{"dx":6,"dy":9},{"dx":2,"dy":4},{"dx":2,"dy":4},{"dx":2,"dy":4},{"dx":2,"dy":5},{"dx":3,"dy":5},{"dx":4,"dy":9},{"dx":2,"dy":3},{"dx":3,"dy":4},{"dx":3,"dy":5},{"dx":3,"dy":3},{"dx":4,"dy":4},{"dx":7,"dy":4},{"dx":4,"dy":2},{"dx":5,"dy":2},{"dx":4,"dy":3},{"dx":5,"dy":2},{"dx":6,"dy":2},{"dx":12,"dy":4},{"dx":4,"dy":1},{"dx":5,"dy":1},{"dx":3,"dy":1},{"dx":5,"dy":1},{"dx":5,"dy":0},{"dx":10,"dy":2},{"dx":4,"dy":0},{"dx":5,"dy":0},{"dx":6,"dy":0},{"dx":6,"dy":-1},{"dx":4,"dy":-2},{"dx":11,"dy":-2},{"dx":5,"dy":-1},{"dx":4,"dy":-1},{"dx":5,"dy":-1},{"dx":4,"dy":-2},{"dx":6,"dy":-3},{"dx":4,"dy":-2},{"dx":3,"dy":-2},{"dx":6,"dy":-3},{"dx":5,"dy":-2},{"dx":5,"dy":-4},{"dx":4,"dy":-3},{"dx":11,"dy":-7},{"dx":6,"dy":-3},{"dx":6,"dy":-4},{"dx":7,"dy":-4},{"dx":6,"dy":-4},{"dx":4,"dy":-3},{"dx":8,"dy":-6},{"dx":4,"dy":-2},{"dx":5,"dy":-3},{"dx":4,"dy":-4},{"dx":4,"dy":-4},{"dx":4,"dy":-4},{"dx":7,"dy":-8},{"dx":5,"dy":-5},{"dx":4,"dy":-4},{"dx":4,"dy":-4},{"dx":5,"dy":-6},{"dx":4,"dy":-6},{"dx":6,"dy":-7},{"dx":7,"dy":-9},{"dx":4,"dy":-4},{"dx":4,"dy":-5},{"dx":3,"dy":-5},{"dx":4,"dy":-3},{"dx":3,"dy":-3},{"dx":7,"dy":-8},{"dx":0,"dy":-1},{"dx":3,"dy":-4},{"dx":3,"dy":-6},{"dx":3,"dy":-4},{"dx":3,"dy":-4},{"dx":5,"dy":-9},{"dx":3,"dy":-5},{"dx":3,"dy":-5},{"dx":3,"dy":-9},{"dx":5,"dy":-8},{"dx":4,"dy":-6},{"dx":6,"dy":-10},{"dx":2,"dy":-4},{"dx":3,"dy":-6},{"dx":2,"dy":-6},{"dx":2,"dy":-5},{"dx":2,"dy":-4},{"dx":2,"dy":-6},{"dx":1,"dy":0},{"dx":0,"dy":-1},{"dx":0,"dy":-2},{"dx":1,"dy":-1},{"dx":0,"dy":-3},{"dx":1,"dy":-5},{"dx":1,"dy":-1},{"dx":0,"dy":-2},{"dx":0,"dy":-5},{"dx":0,"dy":-1},{"dx":1,"dy":-6},{"dx":1,"dy":-2},{"dx":1,"dy":-5},{"dx":0,"dy":-1},{"dx":0,"dy":-2},{"dx":0,"dy":-1},{"dx":0,"dy":-5},{"dx":0,"dy":-7}],"trial_type":"plugin-moving-dots-2","trial_index":12,"plugin_version":"0.0.1","time_elapsed":60927},{"task":"fixation","rt":1966,"stimulus":"<div style=\"font-size:60px;\">+</div>","response":" ","trial_type":"html-keyboard-response","trial_index":13,"plugin_version":"2.1.0","time_elapsed":62895},{"task":"movingdots","control_change":0,"mouse_data":[{"dx":0,"dy":0},{"dx":0,"dy":0},{"dx":0,"dy":0},{"dx":0,"dy":0},{"dx":0,"dy":0},{"dx":0,"dy":0},{"dx":0,"dy":0},{"dx":0,"dy":0},{"dx":0,"dy":0},{"dx":0,"dy":0},{"dx":0,"dy":0},{"dx":0,"dy":0},{"dx":0,"dy":0},{"dx":0,"dy":0},{"dx":0,"dy":0},{"dx":0,"dy":0},{"dx":0,"dy":0},{"dx":0,"dy":0},{"dx":0,"dy":0},{"dx":0,"dy":0},{"dx":0,"dy":0},{"dx":0,"dy":0},{"dx":0,"dy":0},{"dx":0,"dy":0},{"dx":0,"dy":0},{"dx":0,"dy":0},{"dx":0,"dy":0},{"dx":0,"dy":0},{"dx":0,"dy":0},{"dx":0,"dy":0},{"dx":0,"dy":0},{"dx":0,"dy":0},{"dx":-1,"dy":-5},{"dx":-2,"dy":-5},{"dx":-2,"dy":-7},{"dx":-1,"dy":-5},{"dx":-2,"dy":-6},{"dx":-4,"dy":-9},{"dx":-3,"dy":-6},{"dx":-3,"dy":-5},{"dx":-3,"dy":-5},{"dx":-3,"dy":-6},{"dx":-1,"dy":-1},{"dx":-4,"dy":-10},{"dx":-2,"dy":-4},{"dx":0,"dy":-1},{"dx":-3,"dy":-6},{"dx":-3,"dy":-6},{"dx":-2,"dy":-5},{"dx":-2,"dy":-6},{"dx":-2,"dy":-8},{"dx":-2,"dy":-6},{"dx":-1,"dy":-5},{"dx":-2,"dy":-5},{"dx":-2,"dy":-5},{"dx":-4,"dy":-8},{"dx":-3,"dy":-4},{"dx":-4,"dy":-7},{"dx":-3,"dy":-7},{"dx":-3,"dy":-4},{"dx":-3,"dy":-5},{"dx":-3,"dy":-4},{"dx":-3,"dy":-6},{"dx":-3,"dy":-5},{"dx":-3,"dy":-6},{"dx":-2,"dy":-4},{"dx":-3,"dy":-6},{"dx":-3,"dy":-4},{"dx":0,"dy":0},{"dx":-3,"dy":-5},{"dx":-7,"dy":-8},{"dx":0,"dy":-1},{"dx":-3,"dy":-4},{"dx":-5,"dy":-5},{"dx":-3,"dy":-3},{"dx":-5,"dy":-3},{"dx":-5,"dy":-5},{"dx":-4,"dy":-4},{"dx":-4,"dy":-2},{"dx":-3,"dy":-3},{"dx":-8,"dy":-5},{"dx":-4,"dy":-2},{"dx":-1,"dy":0},{"dx":-5,"dy":-2},{"dx":-6,"dy":-2},{"dx":-5,"dy":-1},{"dx":-9,"dy":-1},{"dx":-4,"dy":0},{"dx":-4,"dy":-1},{"dx":-6,"dy":0},{"dx":-4,"dy":0},{"dx":-5,"dy":0},{"dx":-6,"dy":0},{"dx":0,"dy":0},{"dx":-5,"dy":1},{"dx":-9,"dy":3},{"dx":-5,"dy":2},{"dx":-4,"dy":2},{"dx":-4,"dy":2},{"dx":-4,"dy":2},{"dx":-3,"dy":2},{"dx":-8,"dy":5},{"dx":-1,"dy":1},{"dx":-4,"dy":3},{"dx":-3,"dy":3},{"dx":-4,"dy":4},{"dx":-3,"dy":3},{"dx":-4,"dy":3},{"dx":-3,"dy":4},{"dx":-4,"dy":4},{"dx":-6,"dy":8},{"dx":-2,"dy":3},{"dx":-1,"dy":1},{"dx":-3,"dy":6},{"dx":-3,"dy":4},{"dx":-1,"dy":1},{"dx":-1,"dy":2},{"dx":0,"dy":1},{"dx":-1,"dy":2},{"dx":0,"dy":2},{"dx":0,"dy":1},{"dx":-1,"dy":1},{"dx":0,"dy":1},{"dx":0,"dy":1},{"dx":0,"dy":2},{"dx":-1,"dy":6},{"dx":0,"dy":1},{"dx":0,"dy":4},{"dx":0,"dy":1},{"dx":0,"dy":5},{"dx":0,"dy":1},{"dx":0,"dy":5},{"dx":0,"dy":0},{"dx":0,"dy":6},{"dx":0,"dy":1},{"dx":0,"dy":5},{"dx":0,"dy":1},{"dx":0,"dy":5},{"dx":0,"dy":6},{"dx":0,"dy":1},{"dx":1,"dy":6},{"dx":2,"dy":3},{"dx":0,"dy":2},{"dx":3,"dy":5},{"dx":2,"dy":4},{"dx":2,"dy":4},{"dx":1,"dy":1},{"dx":4,"dy":3},{"dx":0,"dy":0},{"dx":4,"dy":3},{"dx":3,"dy":3},{"dx":5,"dy":2},{"dx":4,"dy":3},{"dx":4,"dy":3},{"dx":4,"dy":3},{"dx":6,"dy":2},{"dx":0,"dy":0},{"dx":4,"dy":2},{"dx":1,"dy":0},{"dx":4,"dy":2},{"dx":5,"dy":1},{"dx":0,"dy":0},{"dx":6,"dy":1},{"dx":1,"dy":0},{"dx":1,"dy":0},{"dx":4,"dy":0},{"dx":1,"dy":0},{"dx":5,"dy":-1},{"dx":1,"dy":0},{"dx":5,"dy":-3},{"dx":1,"dy":0},{"dx":8,"dy":-4},{"dx":1,"dy":-1},{"dx":4,"dy":-1},{"dx":5,"dy":-3},{"dx":1,"dy":0},{"dx":4,"dy":-3},{"dx":3,"dy":-3},{"dx":0,"dy":0},{"dx":1,"dy":-1},{"dx":1,"dy":-1},{"dx":5,"dy":-4},{"dx":1,"dy":0},{"dx":6,"dy":-6},{"dx":3,"dy":-4},{"dx":3,"dy":-3},{"dx":4,"dy":-4},{"dx":3,"dy":-3},{"dx":3,"dy":-3},{"dx":4,"dy":-5},{"dx":3,"dy":-3},{"dx":4,"dy":-5},{"dx":4,"dy":-5},{"dx":4,"dy":-3},{"dx":3,"dy":-3},{"dx":3,"dy":-2},{"dx":4,"dy":-3},{"dx":4,"dy":-3},{"dx":6,"dy":-4},{"dx":4,"dy":-3},{"dx":5,"dy":-2},{"dx":8,"dy":-5},{"dx":7,"dy":-3},{"dx":5,"dy":-3},{"dx":5,"dy":-2},{"dx":5,"dy":-2},{"dx":5,"dy":-2},{"dx":10,"dy":-3},{"dx":5,"dy":-2},{"dx":5,"dy":-1},{"dx":5,"dy":-2},{"dx":5,"dy":-2},{"dx":5,"dy":-2},{"dx":8,"dy":-3},{"dx":4,"dy":-2},{"dx":4,"dy":-1},{"dx":5,"dy":-2},{"dx":5,"dy":-2},{"dx":3,"dy":-2},{"dx":8,"dy":-3},{"dx":4,"dy":-2},{"dx":5,"dy":-1},{"dx":4,"dy":-2},{"dx":5,"dy":-1},{"dx":5,"dy":-2},{"dx":4,"dy":-3},{"dx":5,"dy":-2},{"dx":4,"dy":-3},{"dx":8,"dy":-3},{"dx":5,"dy":-2},{"dx":3,"dy":-2},{"dx":4,"dy":-4},{"dx":4,"dy":-3},{"dx":3,"dy":-3},{"dx":7,"dy":-7},{"dx":4,"dy":-5},{"dx":4,"dy":-3},{"dx":2,"dy":-4},{"dx":3,"dy":-4},{"dx":0,"dy":-1},{"dx":2,"dy":-6},{"dx":0,"dy":-5},{"dx":0,"dy":0},{"dx":0,"dy":-6},{"dx":0,"dy":-5},{"dx":0,"dy":0},{"dx":0,"dy":-7},{"dx":0,"dy":-1},{"dx":0,"dy":-2},{"dx":1,"dy":-6},{"dx":0,"dy":-1},{"dx":1,"dy":-1},{"dx":3,"dy":-4},{"dx":0,"dy":-1},{"dx":5,"dy":-3},{"dx":6,"dy":0},{"dx":7,"dy":0},{"dx":7,"dy":1},{"dx":12,"dy":4},{"dx":4,"dy":2},{"dx":0,"dy":1},{"dx":9,"dy":5},{"dx":6,"dy":2},{"dx":6,"dy":3},{"dx":6,"dy":4},{"dx":5,"dy":4},{"dx":9,"dy":8},{"dx":10,"dy":10},{"dx":18,"dy":14},{"dx":11,"dy":11},{"dx":10,"dy":12},{"dx":12,"dy":14},{"dx":6,"dy":6},{"dx":4,"dy":2},{"dx":5,"dy":4},{"dx":4,"dy":2},{"dx":5,"dy":5},{"dx":5,"dy":5},{"dx":5,"dy":7},{"dx":3,"dy":6},{"dx":4,"dy":12},{"dx":2,"dy":8},{"dx":2,"dy":14},{"dx":0,"dy":21},{"dx":-1,"dy":11},{"dx":-2,"dy":8},{"dx":0,"dy":6},{"dx":0,"dy":8},{"dx":0,"dy":5},{"dx":0,"dy":6},{"dx":0,"dy":0},{"dx":0,"dy":6},{"dx":0,"dy":1},{"dx":0,"dy":2},{"dx":0,"dy":0},{"dx":0,"dy":2},{"dx":0,"dy":4},{"dx":-1,"dy":1},{"dx":-2,"dy":4},{"dx":-2,"dy":3},{"dx":-5,"dy":4},{"dx":-7,"dy":6},{"dx":-5,"dy":3},{"dx":-6,"dy":4},{"dx":-9,"dy":4},{"dx":-7,"dy":4},{"dx":-17,"dy":7},{"dx":-10,"dy":4},{"dx":-9,"dy":4},{"dx":-9,"dy":4},{"dx":-14,"dy":6},{"dx":-6,"dy":2},{"dx":-7,"dy":4},{"dx":-10,"dy":4},{"dx":-4,"dy":1},{"dx":-4,"dy":0},{"dx":-6,"dy":0},{"dx":-7,"dy":1},{"dx":-6,"dy":0},{"dx":-11,"dy":1},{"dx":-4,"dy":0},{"dx":-4,"dy":0},{"dx":-5,"dy":0},{"dx":-4,"dy":0},{"dx":-5,"dy":0},{"dx":-9,"dy":-2},{"dx":-5,"dy":-1},{"dx":-6,"dy":-1},{"dx":-7,"dy":-2},{"dx":-6,"dy":-1},{"dx":-4,"dy":0},{"dx":-10,"dy":0},{"dx":-5,"dy":-1},{"dx":-4,"dy":0},{"dx":-5,"dy":0},{"dx":-4,"dy":0},{"dx":-4,"dy":0},{"dx":-6,"dy":-1},{"dx":-6,"dy":0},{"dx":-5,"dy":0},{"dx":-7,"dy":0},{"dx":-10,"dy":-2},{"dx":-1,"dy":0},{"dx":-5,"dy":-1},{"dx":-4,"dy":-2},{"dx":-4,"dy":-1},{"dx":-7,"dy":-1},{"dx":-11,"dy":-3},{"dx":-7,"dy":0},{"dx":-5,"dy":-1},{"dx":-6,"dy":-1},{"dx":-6,"dy":0},{"dx":-15,"dy":-2},{"dx":-11,"dy":0},{"dx":-12,"dy":0},{"dx":-13,"dy":0},{"dx":-20,"dy":1},{"dx":-12,"dy":1},{"dx":-17,"dy":-1},{"dx":-11,"dy":-1},{"dx":-9,"dy":-3},{"dx":-18,"dy":-4},{"dx":-5,"dy":-1},{"dx":-7,"dy":-1},{"dx":-14,"dy":-3},{"dx":-5,"dy":-2},{"dx":-5,"dy":-1},{"dx":-7,"dy":-2},{"dx":-4,"dy":-2},{"dx":-4,"dy":-1},{"dx":-5,"dy":-2},{"dx":-9,"dy":-3},{"dx":-5,"dy":-3},{"dx":-4,"dy":-3},{"dx":-5,"dy":-4},{"dx":-4,"dy":-3},{"dx":-2,"dy":-3},{"dx":-9,"dy":-6},{"dx":-5,"dy":-7},{"dx":-10,"dy":-14},{"dx":-6,"dy":-9},{"dx":-6,"dy":-8},{"dx":-6,"dy":-7},{"dx":-6,"dy":-6},{"dx":-6,"dy":-6},{"dx":-6,"dy":-7},{"dx":-10,"dy":-10},{"dx":-5,"dy":-4},{"dx":-5,"dy":-4},{"dx":-7,"dy":-4},{"dx":-5,"dy":-2},{"dx":-7,"dy":-3},{"dx":-12,"dy":-4},{"dx":-6,"dy":-1},{"dx":-5,"dy":-1},{"dx":-7,"dy":-1},{"dx":-5,"dy":0},{"dx":-5,"dy":0},{"dx":-9,"dy":0},{"dx":-5,"dy":1},{"dx":-1,"dy":0},{"dx":-6,"dy":3},{"dx":-6,"dy":1},{"dx":-4,"dy":3},{"dx":-4,"dy":3},{"dx":-1,"dy":0},{"dx":-4,"dy":3},{"dx":-4,"dy":4},{"dx":-2,"dy":5},{"dx":0,"dy":1},{"dx":-2,"dy":5},{"dx":-3,"dy":4},{"dx":-3,"dy":6},{"dx":-2,"dy":4},{"dx":-3,"dy":5},{"dx":0,"dy":1},{"dx":-3,"dy":4},{"dx":-1,"dy":4},{"dx":-3,"dy":5},{"dx":0,"dy":5},{"dx":-2,"dy":7},{"dx":-1,"dy":0},{"dx":-1,"dy":5},{"dx":-1,"dy":1},{"dx":-1,"dy":6},{"dx":0,"dy":1},{"dx":0,"dy":5},{"dx":0,"dy":1},{"dx":0,"dy":6},{"dx":0,"dy":1},{"dx":2,"dy":5},{"dx":0,"dy":2},{"dx":2,"dy":5},{"dx":3,"dy":4},{"dx":4,"dy":4},{"dx":4,"dy":4},{"dx":4,"dy":3},{"dx":3,"dy":3},{"dx":1,"dy":0},{"dx":1,"dy":1},{"dx":0,"dy":0},{"dx":0,"dy":0},{"dx":0,"dy":0},{"dx":0,"dy":0},{"dx":0,"dy":0},{"dx":0,"dy":0},{"dx":0,"dy":0},{"dx":1,"dy":0},{"dx":1,"dy":0},{"dx":1,"dy":0},{"dx":5,"dy":1},{"dx":6,"dy":1},{"dx":5,"dy":1}],"trial_type":"plugin-moving-dots-2","trial_index":14,"plugin_version":"0.0.1","time_elapsed":70412},{"task":"fixation","rt":2161,"stimulus":"<div style=\"font-size:60px;\">+</div>","response":" ","trial_type":"html-keyboard-response","trial_index":15,"plugin_version":"2.1.0","time_elapsed":72575},{"task":"movingdots","control_change":0,"mouse_data":[{"dx":0,"dy":0},{"dx":0,"dy":0},{"dx":0,"dy":0},{"dx":0,"dy":0},{"dx":0,"dy":0},{"dx":0,"dy":0},{"dx":0,"dy":0},{"dx":0,"dy":0},{"dx":0,"dy":0},{"dx":0,"dy":0},{"dx":0,"dy":0},{"dx":0,"dy":0},{"dx":0,"dy":0},{"dx":0,"dy":0},{"dx":0,"dy":0},{"dx":0,"dy":0},{"dx":0,"dy":0},{"dx":0,"dy":0},{"dx":0,"dy":0},{"dx":0,"dy":0},{"dx":0,"dy":0},{"dx":0,"dy":0},{"dx":0,"dy":0},{"dx":0,"dy":0},{"dx":0,"dy":0},{"dx":0,"dy":0},{"dx":0,"dy":0},{"dx":0,"dy":0},{"dx":0,"dy":0},{"dx":0,"dy":0},{"dx":0,"dy":0},{"dx":0,"dy":0},{"dx":0,"dy":0},{"dx":0,"dy":0},{"dx":0,"dy":0},{"dx":0,"dy":0},{"dx":0,"dy":0},{"dx":0,"dy":0},{"dx":0,"dy":0},{"dx":0,"dy":0},{"dx":0,"dy":0},{"dx":0,"dy":0},{"dx":0,"dy":0},{"dx":0,"dy":0},{"dx":0,"dy":0},{"dx":0,"dy":0},{"dx":0,"dy":0},{"dx":0,"dy":0},{"dx":0,"dy":0},{"dx":0,"dy":0},{"dx":0,"dy":0},{"dx":0,"dy":0},{"dx":0,"dy":0},{"dx":0,"dy":0},{"dx":0,"dy":0},{"dx":0,"dy":0},{"dx":0,"dy":0},{"dx":0,"dy":0},{"dx":0,"dy":0},{"dx":0,"dy":0},{"dx":0,"dy":0},{"dx":0,"dy":0},{"dx":0,"dy":0},{"dx":0,"dy":0},{"dx":0,"dy":0},{"dx":0,"dy":0},{"dx":0,"dy":0},{"dx":0,"dy":0},{"dx":0,"dy":0},{"dx":0,"dy":0},{"dx":0,"dy":0},{"dx":0,"dy":0},{"dx":0,"dy":0},{"dx":0,"dy":0},{"dx":0,"dy":0},{"dx":0,"dy":0},{"dx":0,"dy":0},{"dx":0,"dy":0},{"dx":0,"dy":0},{"dx":0,"dy":0},{"dx":0,"dy":0},{"dx":0,"dy":0},{"dx":0,"dy":0},{"dx":0,"dy":0},{"dx":0,"dy":0},{"dx":0,"dy":0},{"dx":0,"dy":0},{"dx":0,"dy":0},{"dx":0,"dy":0},{"dx":0,"dy":0},{"dx":0,"dy":0},{"dx":0,"dy":0},{"dx":0,"dy":0},{"dx":0,"dy":0},{"dx":0,"dy":0},{"dx":0,"dy":0},{"dx":0,"dy":0},{"dx":0,"dy":0},{"dx":0,"dy":0},{"dx":0,"dy":0},{"dx":5,"dy":-2},{"dx":11,"dy":-4},{"dx":7,"dy":-4},{"dx":7,"dy":-4},{"dx":14,"dy":-6},{"dx":9,"dy":-3},{"dx":13,"dy":-3},{"dx":20,"dy":-8},{"dx":12,"dy":-3},{"dx":6,"dy":-2},{"dx":11,"dy":-3},{"dx":7,"dy":-2},{"dx":10,"dy":-1},{"dx":8,"dy":0},{"dx":7,"dy":0},{"dx":4,"dy":0},{"dx":10,"dy":3},{"dx":8,"dy":3},{"dx":9,"dy":3},{"dx":11,"dy":6},{"dx":5,"dy":3},{"dx":6,"dy":3},{"dx":7,"dy":3},{"dx":7,"dy":4},{"dx":6,"dy":3},{"dx":9,"dy":6},{"dx":5,"dy":4},{"dx":4,"dy":2},{"dx":4,"dy":5},{"dx":4,"dy":5},{"dx":3,"dy":4},{"dx":2,"dy":5},{"dx":3,"dy":3},{"dx":2,"dy":4},{"dx":5,"dy":9},{"dx":2,"dy":5},{"dx":3,"dy":5},{"dx":2,"dy":5},{"dx":1,"dy":5},{"dx":1,"dy":6},{"dx":1,"dy":7},{"dx":0,"dy":5},{"dx":0,"dy":0},{"dx":0,"dy":6},{"dx":0,"dy":5},{"dx":0,"dy":6},{"dx":0,"dy":0},{"dx":-1,"dy":5},{"dx":-1,"dy":5},{"dx":-2,"dy":6},{"dx":-3,"dy":6},{"dx":-3,"dy":4},{"dx":-2,"dy":4},{"dx":-1,"dy":1},{"dx":-4,"dy":4},{"dx":-4,"dy":5},{"dx":-3,"dy":5},{"dx":-3,"dy":3},{"dx":-1,"dy":1},{"dx":-7,"dy":7},{"dx":-4,"dy":5},{"dx":-4,"dy":4},{"dx":-3,"dy":3},{"dx":-4,"dy":3},{"dx":-5,"dy":2},{"dx":-5,"dy":4},{"dx":-4,"dy":2},{"dx":-5,"dy":3},{"dx":-4,"dy":1},{"dx":-5,"dy":2},{"dx":-5,"dy":2},{"dx":-9,"dy":2},{"dx":-5,"dy":1},{"dx":-5,"dy":0},{"dx":-3,"dy":1},{"dx":-5,"dy":1},{"dx":-6,"dy":1},{"dx":-9,"dy":1},{"dx":0,"dy":0},{"dx":-5,"dy":0},{"dx":-6,"dy":0},{"dx":-5,"dy":0},{"dx":-5,"dy":0},{"dx":-5,"dy":0},{"dx":-5,"dy":0},{"dx":-1,"dy":-1},{"dx":-5,"dy":-1},{"dx":-1,"dy":0},{"dx":-1,"dy":-1},{"dx":-4,"dy":-3},{"dx":-1,"dy":-1},{"dx":-3,"dy":-2},{"dx":-5,"dy":-3},{"dx":0,"dy":-1},{"dx":-1,"dy":-1},{"dx":-4,"dy":-4},{"dx":-4,"dy":-4},{"dx":-3,"dy":-4},{"dx":-4,"dy":-3},{"dx":-1,"dy":-1},{"dx":-4,"dy":-4},{"dx":-4,"dy":-4},{"dx":0,"dy":0},{"dx":-4,"dy":-2},{"dx":-8,"dy":-5},{"dx":-4,"dy":-1},{"dx":-4,"dy":-2},{"dx":-4,"dy":-1},{"dx":-6,"dy":-2},{"dx":-1,"dy":-1},{"dx":-10,"dy":-3},{"dx":-5,"dy":-1},{"dx":-7,"dy":-1},{"dx":-8,"dy":-1},{"dx":-6,"dy":0},{"dx":-6,"dy":0},{"dx":-15,"dy":2},{"dx":-10,"dy":2},{"dx":-8,"dy":3},{"dx":-16,"dy":6},{"dx":-13,"dy":5},{"dx":-12,"dy":7},{"dx":-16,"dy":11},{"dx":-11,"dy":7},{"dx":-9,"dy":7},{"dx":-5,"dy":6},{"dx":-5,"dy":5},{"dx":-4,"dy":4},{"dx":-5,"dy":9},{"dx":-2,"dy":6},{"dx":-1,"dy":0},{"dx":-2,"dy":6},{"dx":-3,"dy":5},{"dx":0,"dy":0},{"dx":-5,"dy":10},{"dx":-1,"dy":1},{"dx":-3,"dy":5},{"dx":-5,"dy":9},{"dx":-2,"dy":4},{"dx":-2,"dy":4},{"dx":-2,"dy":4},{"dx":-3,"dy":4},{"dx":-2,"dy":4},{"dx":-4,"dy":8},{"dx":-1,"dy":1},{"dx":-2,"dy":5},{"dx":-3,"dy":6},{"dx":-2,"dy":6},{"dx":0,"dy":1},{"dx":-2,"dy":6},{"dx":-1,"dy":4},{"dx":0,"dy":1},{"dx":-1,"dy":5},{"dx":0,"dy":1},{"dx":0,"dy":6},{"dx":2,"dy":4},{"dx":0,"dy":1},{"dx":2,"dy":4},{"dx":5,"dy":9},{"dx":3,"dy":5},{"dx":3,"dy":3},{"dx":6,"dy":4},{"dx":4,"dy":3},{"dx":4,"dy":3},{"dx":4,"dy":3},{"dx":4,"dy":3},{"dx":5,"dy":2},{"dx":10,"dy":5},{"dx":6,"dy":2},{"dx":5,"dy":2},{"dx":5,"dy":3},{"dx":5,"dy":2},{"dx":6,"dy":3},{"dx":12,"dy":4},{"dx":6,"dy":2},{"dx":7,"dy":2},{"dx":5,"dy":2},{"dx":7,"dy":2},{"dx":7,"dy":1},{"dx":10,"dy":3},{"dx":6,"dy":1},{"dx":6,"dy":1},{"dx":5,"dy":1},{"dx":7,"dy":1},{"dx":6,"dy":1},{"dx":10,"dy":2},{"dx":4,"dy":1},{"dx":5,"dy":1},{"dx":5,"dy":1},{"dx":6,"dy":1},{"dx":6,"dy":1},{"dx":9,"dy":1},{"dx":5,"dy":0},{"dx":6,"dy":1},{"dx":5,"dy":0},{"dx":5,"dy":1},{"dx":6,"dy":0},{"dx":11,"dy":0},{"dx":4,"dy":0},{"dx":5,"dy":0},{"dx":7,"dy":0},{"dx":5,"dy":0},{"dx":6,"dy":0},{"dx":9,"dy":0},{"dx":1,"dy":-1},{"dx":5,"dy":0},{"dx":8,"dy":0},{"dx":5,"dy":0},{"dx":4,"dy":0},{"dx":3,"dy":0},{"dx":6,"dy":-2},{"dx":5,"dy":0},{"dx":8,"dy":0},{"dx":4,"dy":0},{"dx":6,"dy":0},{"dx":7,"dy":0},{"dx":5,"dy":0},{"dx":6,"dy":0},{"dx":11,"dy":0},{"dx":7,"dy":1},{"dx":8,"dy":0},{"dx":7,"dy":0},{"dx":7,"dy":0},{"dx":9,"dy":-1},{"dx":8,"dy":0},{"dx":16,"dy":0},{"dx":8,"dy":0},{"dx":12,"dy":0},{"dx":10,"dy":0},{"dx":6,"dy":0},{"dx":8,"dy":0},{"dx":16,"dy":0},{"dx":7,"dy":0},{"dx":6,"dy":-1},{"dx":6,"dy":0},{"dx":7,"dy":0},{"dx":7,"dy":0},{"dx":11,"dy":0},{"dx":5,"dy":0},{"dx":5,"dy":-1},{"dx":6,"dy":0},{"dx":6,"dy":0},{"dx":5,"dy":-1},{"dx":9,"dy":0},{"dx":5,"dy":-1},{"dx":4,"dy":-1},{"dx":6,"dy":0},{"dx":6,"dy":-1},{"dx":5,"dy":-1},{"dx":9,"dy":-2},{"dx":4,"dy":-1},{"dx":4,"dy":-1},{"dx":7,"dy":-2},{"dx":6,"dy":-1},{"dx":5,"dy":-2},{"dx":11,"dy":-4},{"dx":6,"dy":-2},{"dx":6,"dy":-2},{"dx":5,"dy":-2},{"dx":5,"dy":-3},{"dx":4,"dy":-3},{"dx":8,"dy":-4},{"dx":4,"dy":-2},{"dx":5,"dy":-3},{"dx":5,"dy":-2},{"dx":4,"dy":-3},{"dx":4,"dy":-3},{"dx":1,"dy":-1},{"dx":4,"dy":-3},{"dx":4,"dy":-4},{"dx":4,"dy":-3},{"dx":3,"dy":-4},{"dx":3,"dy":-4},{"dx":9,"dy":-8},{"dx":5,"dy":-5},{"dx":4,"dy":-4},{"dx":4,"dy":-5},{"dx":5,"dy":-6},{"dx":5,"dy":-5},{"dx":8,"dy":-11},{"dx":4,"dy":-5},{"dx":5,"dy":-4},{"dx":2,"dy":-4},{"dx":4,"dy":-5},{"dx":3,"dy":-4},{"dx":3,"dy":-6},{"dx":3,"dy":-7},{"dx":2,"dy":-6},{"dx":3,"dy":-5},{"dx":3,"dy":-4},{"dx":2,"dy":-6},{"dx":3,"dy":-5},{"dx":3,"dy":-5},{"dx":3,"dy":-4},{"dx":1,"dy":-5},{"dx":4,"dy":-5},{"dx":0,"dy":-1},{"dx":3,"dy":-4},{"dx":2,"dy":-4},{"dx":2,"dy":-5},{"dx":2,"dy":-5},{"dx":1,"dy":0},{"dx":2,"dy":-4},{"dx":2,"dy":-6},{"dx":3,"dy":-6},{"dx":1,"dy":-6},{"dx":1,"dy":-5},{"dx":3,"dy":-5},{"dx":1,"dy":-5},{"dx":3,"dy":-5},{"dx":3,"dy":-6},{"dx":3,"dy":-5},{"dx":4,"dy":-10},{"dx":2,"dy":-5},{"dx":1,"dy":-6},{"dx":2,"dy":-4},{"dx":2,"dy":-6},{"dx":1,"dy":-6},{"dx":3,"dy":-6},{"dx":0,"dy":-1},{"dx":2,"dy":-5},{"dx":2,"dy":-8},{"dx":1,"dy":-6},{"dx":1,"dy":-6},{"dx":2,"dy":-10},{"dx":1,"dy":-7},{"dx":0,"dy":-1},{"dx":1,"dy":-6},{"dx":2,"dy":-11},{"dx":1,"dy":-6},{"dx":0,"dy":-6},{"dx":2,"dy":-6},{"dx":2,"dy":-4},{"dx":1,"dy":-7},{"dx":0,"dy":-8},{"dx":1,"dy":-4},{"dx":1,"dy":-6},{"dx":0,"dy":-6},{"dx":1,"dy":-5},{"dx":2,"dy":-7},{"dx":2,"dy":-6},{"dx":1,"dy":-6},{"dx":1,"dy":-6},{"dx":1,"dy":-5},{"dx":1,"dy":-6},{"dx":1,"dy":-7},{"dx":1,"dy":-5},{"dx":1,"dy":-6},{"dx":0,"dy":0},{"dx":1,"dy":-7},{"dx":1,"dy":-5},{"dx":0,"dy":-5},{"dx":0,"dy":-7}],"trial_type":"plugin-moving-dots-2","trial_index":16,"plugin_version":"0.0.1","time_elapsed":80095},{"task":"fixation","rt":2095,"stimulus":"<div style=\"font-size:60px;\">+</div>","response":" ","trial_type":"html-keyboard-response","trial_index":17,"plugin_version":"2.1.0","time_elapsed":82191},{"task":"movingdots","control_change":0,"mouse_data":[{"dx":0,"dy":0},{"dx":0,"dy":0},{"dx":0,"dy":0},{"dx":0,"dy":0},{"dx":0,"dy":0},{"dx":0,"dy":0},{"dx":0,"dy":0},{"dx":0,"dy":0},{"dx":0,"dy":0},{"dx":0,"dy":0},{"dx":0,"dy":0},{"dx":0,"dy":0},{"dx":0,"dy":0},{"dx":0,"dy":0},{"dx":0,"dy":0},{"dx":0,"dy":0},{"dx":0,"dy":0},{"dx":0,"dy":0},{"dx":0,"dy":0},{"dx":0,"dy":0},{"dx":0,"dy":0},{"dx":0,"dy":0},{"dx":0,"dy":0},{"dx":0,"dy":0},{"dx":0,"dy":0},{"dx":0,"dy":0},{"dx":0,"dy":0},{"dx":0,"dy":0},{"dx":0,"dy":0},{"dx":0,"dy":0},{"dx":0,"dy":0},{"dx":0,"dy":0},{"dx":0,"dy":0},{"dx":0,"dy":0},{"dx":0,"dy":0},{"dx":0,"dy":0},{"dx":0,"dy":0},{"dx":0,"dy":0},{"dx":0,"dy":0},{"dx":0,"dy":0},{"dx":0,"dy":0},{"dx":0,"dy":0},{"dx":0,"dy":0},{"dx":0,"dy":0},{"dx":0,"dy":0},{"dx":0,"dy":0},{"dx":0,"dy":0},{"dx":0,"dy":0},{"dx":0,"dy":0},{"dx":0,"dy":0},{"dx":0,"dy":0},{"dx":0,"dy":0},{"dx":0,"dy":0},{"dx":0,"dy":0},{"dx":0,"dy":0},{"dx":0,"dy":0},{"dx":0,"dy":0},{"dx":0,"dy":0},{"dx":0,"dy":0},{"dx":0,"dy":0},{"dx":0,"dy":0},{"dx":0,"dy":0},{"dx":0,"dy":0},{"dx":0,"dy":0},{"dx":0,"dy":0},{"dx":0,"dy":0},{"dx":0,"dy":0},{"dx":0,"dy":0},{"dx":0,"dy":0},{"dx":0,"dy":0},{"dx":0,"dy":0},{"dx":0,"dy":0},{"dx":0,"dy":0},{"dx":0,"dy":0},{"dx":0,"dy":0},{"dx":0,"dy":0},{"dx":0,"dy":0},{"dx":0,"dy":0},{"dx":0,"dy":0},{"dx":0,"dy":0},{"dx":0,"dy":0},{"dx":0,"dy":0},{"dx":0,"dy":0},{"dx":0,"dy":0},{"dx":0,"dy":0},{"dx":0,"dy":0},{"dx":0,"dy":0},{"dx":0,"dy":0},{"dx":0,"dy":0},{"dx":0,"dy":0},{"dx":0,"dy":0},{"dx":0,"dy":0},{"dx":0,"dy":0},{"dx":0,"dy":0},{"dx":0,"dy":0},{"dx":0,"dy":0},{"dx":0,"dy":0},{"dx":0,"dy":0},{"dx":0,"dy":0},{"dx":0,"dy":0},{"dx":0,"dy":0},{"dx":0,"dy":0},{"dx":0,"dy":0},{"dx":0,"dy":0},{"dx":4,"dy":-3},{"dx":5,"dy":-2},{"dx":6,"dy":-2},{"dx":6,"dy":-3},{"dx":11,"dy":-3},{"dx":5,"dy":-2},{"dx":5,"dy":-2},{"dx":7,"dy":-2},{"dx":7,"dy":-1},{"dx":5,"dy":-1},{"dx":12,"dy":-1},{"dx":5,"dy":-1},{"dx":7,"dy":-1},{"dx":8,"dy":0},{"dx":6,"dy":0},{"dx":4,"dy":0},{"dx":12,"dy":0},{"dx":7,"dy":0},{"dx":7,"dy":0},{"dx":5,"dy":0},{"dx":5,"dy":0},{"dx":6,"dy":0},{"dx":11,"dy":1},{"dx":6,"dy":1},{"dx":5,"dy":0},{"dx":5,"dy":0},{"dx":5,"dy":0},{"dx":4,"dy":1},{"dx":11,"dy":0},{"dx":5,"dy":1},{"dx":4,"dy":0},{"dx":6,"dy":1},{"dx":5,"dy":0},{"dx":5,"dy":1},{"dx":7,"dy":2},{"dx":7,"dy":0},{"dx":5,"dy":1},{"dx":9,"dy":1},{"dx":5,"dy":1},{"dx":4,"dy":1},{"dx":5,"dy":1},{"dx":6,"dy":1},{"dx":4,"dy":0},{"dx":9,"dy":2},{"dx":5,"dy":1},{"dx":5,"dy":1},{"dx":5,"dy":1},{"dx":4,"dy":1},{"dx":5,"dy":1},{"dx":9,"dy":2},{"dx":5,"dy":1},{"dx":5,"dy":1},{"dx":6,"dy":1},{"dx":4,"dy":1},{"dx":6,"dy":2},{"dx":6,"dy":2},{"dx":1,"dy":0},{"dx":7,"dy":2},{"dx":4,"dy":2},{"dx":5,"dy":1},{"dx":5,"dy":2},{"dx":5,"dy":2},{"dx":0,"dy":0},{"dx":3,"dy":2},{"dx":6,"dy":3},{"dx":4,"dy":2},{"dx":1,"dy":0},{"dx":8,"dy":5},{"dx":5,"dy":1},{"dx":4,"dy":3},{"dx":5,"dy":3},{"dx":5,"dy":2},{"dx":4,"dy":4},{"dx":5,"dy":2},{"dx":5,"dy":2},{"dx":4,"dy":3},{"dx":4,"dy":3},{"dx":8,"dy":5},{"dx":1,"dy":0},{"dx":3,"dy":3},{"dx":4,"dy":3},{"dx":3,"dy":3},{"dx":1,"dy":0},{"dx":4,"dy":3},{"dx":2,"dy":4},{"dx":3,"dy":4},{"dx":3,"dy":5},{"dx":0,"dy":0},{"dx":4,"dy":4},{"dx":3,"dy":4},{"dx":2,"dy":4},{"dx":1,"dy":1},{"dx":3,"dy":4},{"dx":1,"dy":4},{"dx":1,"dy":2},{"dx":2,"dy":4},{"dx":1,"dy":6},{"dx":1,"dy":0},{"dx":1,"dy":6},{"dx":1,"dy":7},{"dx":1,"dy":0},{"dx":0,"dy":5},{"dx":0,"dy":1},{"dx":1,"dy":6},{"dx":0,"dy":2},{"dx":0,"dy":5},{"dx":0,"dy":5},{"dx":0,"dy":6},{"dx":-1,"dy":6},{"dx":0,"dy":1},{"dx":-2,"dy":6},{"dx":-1,"dy":5},{"dx":-3,"dy":7},{"dx":-2,"dy":5},{"dx":-2,"dy":5},{"dx":-1,"dy":5},{"dx":-3,"dy":7},{"dx":0,"dy":0},{"dx":-2,"dy":6},{"dx":-3,"dy":5},{"dx":-3,"dy":4},{"dx":0,"dy":0},{"dx":-3,"dy":5},{"dx":-3,"dy":4},{"dx":0,"dy":0},{"dx":-2,"dy":5},{"dx":-3,"dy":3},{"dx":0,"dy":0},{"dx":-4,"dy":5},{"dx":-3,"dy":3},{"dx":-3,"dy":3},{"dx":-3,"dy":4},{"dx":0,"dy":0},{"dx":-3,"dy":3},{"dx":-4,"dy":2},{"dx":-5,"dy":4},{"dx":-4,"dy":2},{"dx":-4,"dy":3},{"dx":-3,"dy":2},{"dx":-6,"dy":3},{"dx":-4,"dy":3},{"dx":-1,"dy":0},{"dx":-4,"dy":3},{"dx":0,"dy":0},{"dx":-2,"dy":1},{"dx":-2,"dy":3},{"dx":-2,"dy":1},{"dx":0,"dy":1},{"dx":-3,"dy":3},{"dx":-1,"dy":1},{"dx":-1,"dy":1},{"dx":-1,"dy":1},{"dx":-3,"dy":5},{"dx":0,"dy":0},{"dx":-1,"dy":1},{"dx":-2,"dy":3},{"dx":-3,"dy":6},{"dx":0,"dy":0},{"dx":-2,"dy":4},{"dx":-2,"dy":5},{"dx":-1,"dy":5},{"dx":0,"dy":1},{"dx":-1,"dy":6},{"dx":-1,"dy":1},{"dx":-1,"dy":6},{"dx":-1,"dy":4},{"dx":0,"dy":6},{"dx":0,"dy":1},{"dx":0,"dy":6},{"dx":0,"dy":4},{"dx":0,"dy":2},{"dx":0,"dy":5},{"dx":0,"dy":1},{"dx":0,"dy":5},{"dx":1,"dy":2},{"dx":1,"dy":5},{"dx":0,"dy":0},{"dx":3,"dy":5},{"dx":0,"dy":0},{"dx":0,"dy":1},{"dx":3,"dy":5},{"dx":0,"dy":0},{"dx":3,"dy":4},{"dx":3,"dy":4},{"dx":0,"dy":0},{"dx":4,"dy":4},{"dx":5,"dy":3},{"dx":0,"dy":0},{"dx":3,"dy":3},{"dx":3,"dy":3},{"dx":4,"dy":2},{"dx":1,"dy":1},{"dx":3,"dy":2},{"dx":4,"dy":3},{"dx":4,"dy":2},{"dx":5,"dy":2},{"dx":4,"dy":2},{"dx":5,"dy":1},{"dx":4,"dy":2},{"dx":5,"dy":2},{"dx":5,"dy":1},{"dx":10,"dy":5},{"dx":5,"dy":2},{"dx":3,"dy":1},{"dx":5,"dy":1},{"dx":5,"dy":1},{"dx":4,"dy":1},{"dx":5,"dy":1},{"dx":4,"dy":0},{"dx":5,"dy":2},{"dx":9,"dy":1},{"dx":5,"dy":0},{"dx":4,"dy":0},{"dx":5,"dy":0},{"dx":4,"dy":0},{"dx":4,"dy":0},{"dx":9,"dy":0},{"dx":4,"dy":0},{"dx":4,"dy":0},{"dx":6,"dy":0},{"dx":5,"dy":0},{"dx":4,"dy":0},{"dx":5,"dy":-1},{"dx":4,"dy":0},{"dx":5,"dy":0},{"dx":7,"dy":-2},{"dx":2,"dy":0},{"dx":6,"dy":-1},{"dx":8,"dy":-2},{"dx":4,"dy":-2},{"dx":5,"dy":-1},{"dx":5,"dy":-1},{"dx":4,"dy":-2},{"dx":5,"dy":-1},{"dx":10,"dy":-4},{"dx":5,"dy":-2},{"dx":5,"dy":-1},{"dx":6,"dy":-3},{"dx":4,"dy":-3},{"dx":5,"dy":-2},{"dx":8,"dy":-6},{"dx":5,"dy":-3},{"dx":4,"dy":-3},{"dx":4,"dy":-2},{"dx":4,"dy":-3},{"dx":4,"dy":-2},{"dx":3,"dy":-4},{"dx":4,"dy":-3},{"dx":5,"dy":-4},{"dx":3,"dy":-4},{"dx":3,"dy":-4},{"dx":4,"dy":-4},{"dx":5,"dy":-6},{"dx":3,"dy":-4},{"dx":4,"dy":-5},{"dx":3,"dy":-4},{"dx":1,"dy":-1},{"dx":3,"dy":-4},{"dx":6,"dy":-9},{"dx":0,"dy":-1},{"dx":2,"dy":-5},{"dx":2,"dy":-7},{"dx":2,"dy":-5},{"dx":1,"dy":-5},{"dx":4,"dy":-11},{"dx":1,"dy":-1},{"dx":1,"dy":-5},{"dx":3,"dy":-12},{"dx":0,"dy":-6},{"dx":1,"dy":-5},{"dx":1,"dy":-7},{"dx":0,"dy":-6},{"dx":0,"dy":-1},{"dx":0,"dy":-6},{"dx":0,"dy":-5},{"dx":0,"dy":-5},{"dx":0,"dy":-7},{"dx":0,"dy":-1},{"dx":-2,"dy":-5},{"dx":0,"dy":-6},{"dx":0,"dy":-5},{"dx":0,"dy":-1},{"dx":0,"dy":-5},{"dx":-1,"dy":-2},{"dx":-2,"dy":-5},{"dx":-2,"dy":-7},{"dx":-3,"dy":-5},{"dx":-3,"dy":-4},{"dx":-3,"dy":-5},{"dx":-3,"dy":-5},{"dx":-5,"dy":-4},{"dx":-4,"dy":-4},{"dx":-4,"dy":-4},{"dx":-4,"dy":-3},{"dx":-5,"dy":-3},{"dx":-4,"dy":-3},{"dx":-4,"dy":-4},{"dx":-4,"dy":-3},{"dx":-6,"dy":-3},{"dx":-1,"dy":-1},{"dx":-6,"dy":-1},{"dx":-7,"dy":-2},{"dx":-1,"dy":-1},{"dx":-11,"dy":-4},{"dx":-3,"dy":0},{"dx":-1,"dy":-1},{"dx":-11,"dy":-2},{"dx":-6,"dy":-1},{"dx":-3,"dy":-1},{"dx":-5,"dy":0},{"dx":-6,"dy":0},{"dx":-5,"dy":0},{"dx":-5,"dy":0},{"dx":-9,"dy":2},{"dx":-6,"dy":2},{"dx":-5,"dy":2},{"dx":-6,"dy":2},{"dx":-6,"dy":2},{"dx":-5,"dy":2},{"dx":-8,"dy":4},{"dx":-4,"dy":2},{"dx":-4,"dy":2},{"dx":-5,"dy":3},{"dx":-1,"dy":0},{"dx":-4,"dy":3},{"dx":-4,"dy":3},{"dx":-1,"dy":1},{"dx":-3,"dy":4},{"dx":0,"dy":0},{"dx":-2,"dy":4},{"dx":-1,"dy":1},{"dx":-2,"dy":5},{"dx":-2,"dy":5},{"dx":0,"dy":0},{"dx":-2,"dy":5},{"dx":0,"dy":1},{"dx":0,"dy":0},{"dx":-1,"dy":3},{"dx":0,"dy":1},{"dx":0,"dy":1},{"dx":0,"dy":1},{"dx":0,"dy":1},{"dx":0,"dy":0},{"dx":0,"dy":1},{"dx":0,"dy":0},{"dx":0,"dy":0},{"dx":0,"dy":1},{"dx":1,"dy":0}],"trial_type":"plugin-moving-dots-2","trial_index":18,"plugin_version":"0.0.1","time_elapsed":89693},{"task":"fixation","rt":2448,"stimulus":"<div style=\"font-size:60px;\">+</div>","response":" ","trial_type":"html-keyboard-response","trial_index":19,"plugin_version":"2.1.0","time_elapsed":92144},{"task":"movingdots","control_change":0,"mouse_data":[{"dx":0,"dy":0},{"dx":0,"dy":0},{"dx":0,"dy":0},{"dx":0,"dy":0},{"dx":0,"dy":0},{"dx":0,"dy":0},{"dx":0,"dy":0},{"dx":0,"dy":0},{"dx":0,"dy":0},{"dx":0,"dy":0},{"dx":0,"dy":0},{"dx":0,"dy":0},{"dx":0,"dy":0},{"dx":0,"dy":0},{"dx":0,"dy":0},{"dx":0,"dy":0},{"dx":0,"dy":0},{"dx":0,"dy":0},{"dx":0,"dy":0},{"dx":0,"dy":0},{"dx":0,"dy":0},{"dx":0,"dy":0},{"dx":0,"dy":0},{"dx":0,"dy":0},{"dx":0,"dy":0},{"dx":0,"dy":0},{"dx":0,"dy":0},{"dx":0,"dy":0},{"dx":0,"dy":0},{"dx":-3,"dy":-4},{"dx":0,"dy":-1},{"dx":-2,"dy":-4},{"dx":-2,"dy":-6},{"dx":-1,"dy":-1},{"dx":0,"dy":-11},{"dx":-1,"dy":-5},{"dx":0,"dy":-7},{"dx":0,"dy":-6},{"dx":0,"dy":-7},{"dx":0,"dy":-7},{"dx":-1,"dy":-12},{"dx":0,"dy":-7},{"dx":0,"dy":-1},{"dx":0,"dy":-7},{"dx":0,"dy":-5},{"dx":-1,"dy":-1},{"dx":0,"dy":-6},{"dx":0,"dy":-1},{"dx":0,"dy":-6},{"dx":0,"dy":-1},{"dx":0,"dy":-5},{"dx":0,"dy":-5},{"dx":1,"dy":-1},{"dx":1,"dy":-6},{"dx":2,"dy":-5},{"dx":2,"dy":-5},{"dx":2,"dy":-7},{"dx":0,"dy":-1},{"dx":1,"dy":-7},{"dx":2,"dy":-12},{"dx":0,"dy":-1},{"dx":1,"dy":-6},{"dx":2,"dy":-11},{"dx":2,"dy":-4},{"dx":2,"dy":-6},{"dx":2,"dy":-5},{"dx":2,"dy":-7},{"dx":0,"dy":0},{"dx":2,"dy":-5},{"dx":2,"dy":-4},{"dx":2,"dy":-6},{"dx":5,"dy":-8},{"dx":2,"dy":-4},{"dx":4,"dy":-5},{"dx":4,"dy":-5},{"dx":4,"dy":-4},{"dx":3,"dy":-4},{"dx":7,"dy":-5},{"dx":3,"dy":-2},{"dx":4,"dy":-3},{"dx":5,"dy":-3},{"dx":4,"dy":-3},{"dx":4,"dy":-1},{"dx":4,"dy":-2},{"dx":5,"dy":-2},{"dx":5,"dy":-1},{"dx":9,"dy":-3},{"dx":0,"dy":0},{"dx":3,"dy":-1},{"dx":6,"dy":-1},{"dx":1,"dy":-1},{"dx":5,"dy":0},{"dx":4,"dy":0},{"dx":5,"dy":0},{"dx":1,"dy":0},{"dx":9,"dy":0},{"dx":5,"dy":0},{"dx":6,"dy":-1},{"dx":5,"dy":-1},{"dx":6,"dy":-1},{"dx":0,"dy":0},{"dx":4,"dy":-1},{"dx":5,"dy":-1},{"dx":5,"dy":0},{"dx":10,"dy":-2},{"dx":4,"dy":-1},{"dx":1,"dy":0},{"dx":4,"dy":0},{"dx":2,"dy":-1},{"dx":4,"dy":-1},{"dx":1,"dy":0},{"dx":3,"dy":-2},{"dx":5,"dy":-3},{"dx":0,"dy":-1},{"dx":4,"dy":-2},{"dx":0,"dy":-1},{"dx":4,"dy":-4},{"dx":2,"dy":-3},{"dx":2,"dy":-6},{"dx":0,"dy":-1},{"dx":2,"dy":-4},{"dx":1,"dy":-6},{"dx":0,"dy":-5},{"dx":0,"dy":-1},{"dx":-1,"dy":-5},{"dx":-2,"dy":-5},{"dx":-1,"dy":-1},{"dx":-1,"dy":-3},{"dx":-4,"dy":-4},{"dx":-3,"dy":-5},{"dx":-4,"dy":-4},{"dx":-4,"dy":-3},{"dx":-4,"dy":-4},{"dx":-3,"dy":-3},{"dx":-4,"dy":-3},{"dx":-1,"dy":-1},{"dx":-4,"dy":-3},{"dx":-10,"dy":-6},{"dx":-8,"dy":-2},{"dx":-9,"dy":-2},{"dx":-12,"dy":-2},{"dx":-8,"dy":0},{"dx":-6,"dy":0},{"dx":-8,"dy":0},{"dx":-8,"dy":0},{"dx":-7,"dy":1},{"dx":-6,"dy":2},{"dx":-12,"dy":3},{"dx":-7,"dy":2},{"dx":-5,"dy":2},{"dx":-5,"dy":1},{"dx":-6,"dy":3},{"dx":-4,"dy":2},{"dx":-5,"dy":4},{"dx":-1,"dy":0},{"dx":-4,"dy":4},{"dx":-7,"dy":4},{"dx":-1,"dy":1},{"dx":-3,"dy":3},{"dx":-4,"dy":3},{"dx":-4,"dy":3},{"dx":-1,"dy":1},{"dx":-6,"dy":7},{"dx":-4,"dy":5},{"dx":-3,"dy":4},{"dx":-3,"dy":4},{"dx":-3,"dy":4},{"dx":-2,"dy":5},{"dx":-5,"dy":11},{"dx":-1,"dy":6},{"dx":-2,"dy":5},{"dx":-1,"dy":6},{"dx":0,"dy":7},{"dx":0,"dy":1},{"dx":0,"dy":6},{"dx":1,"dy":5},{"dx":0,"dy":1},{"dx":1,"dy":2},{"dx":2,"dy":5},{"dx":0,"dy":0},{"dx":2,"dy":3},{"dx":5,"dy":5},{"dx":3,"dy":3},{"dx":3,"dy":3},{"dx":5,"dy":4},{"dx":4,"dy":3},{"dx":12,"dy":8},{"dx":5,"dy":5},{"dx":7,"dy":5},{"dx":13,"dy":11},{"dx":7,"dy":7},{"dx":7,"dy":6},{"dx":5,"dy":4},{"dx":5,"dy":3},{"dx":4,"dy":3},{"dx":9,"dy":6},{"dx":5,"dy":3},{"dx":5,"dy":3},{"dx":7,"dy":5},{"dx":5,"dy":3},{"dx":4,"dy":3},{"dx":7,"dy":6},{"dx":7,"dy":4},{"dx":7,"dy":4},{"dx":5,"dy":4},{"dx":3,"dy":3},{"dx":5,"dy":5},{"dx":4,"dy":5},{"dx":3,"dy":4},{"dx":3,"dy":3},{"dx":5,"dy":7},{"dx":3,"dy":4},{"dx":2,"dy":5},{"dx":3,"dy":5},{"dx":2,"dy":5},{"dx":2,"dy":7},{"dx":3,"dy":11},{"dx":2,"dy":5},{"dx":1,"dy":4},{"dx":2,"dy":5},{"dx":1,"dy":5},{"dx":0,"dy":4},{"dx":1,"dy":10},{"dx":0,"dy":5},{"dx":0,"dy":5},{"dx":0,"dy":4},{"dx":-1,"dy":7},{"dx":-1,"dy":6},{"dx":-1,"dy":6},{"dx":-1,"dy":12},{"dx":-1,"dy":4},{"dx":-1,"dy":6},{"dx":-1,"dy":6},{"dx":-1,"dy":6},{"dx":0,"dy":4},{"dx":-1,"dy":6},{"dx":-2,"dy":7},{"dx":-2,"dy":6},{"dx":-3,"dy":10},{"dx":-1,"dy":0},{"dx":-1,"dy":5},{"dx":-3,"dy":5},{"dx":-4,"dy":5},{"dx":-2,"dy":5},{"dx":-3,"dy":5},{"dx":-3,"dy":4},{"dx":-3,"dy":3},{"dx":-7,"dy":7},{"dx":-3,"dy":4},{"dx":-4,"dy":4},{"dx":-4,"dy":5},{"dx":-5,"dy":4},{"dx":-4,"dy":5},{"dx":-10,"dy":10},{"dx":-6,"dy":5},{"dx":-6,"dy":5},{"dx":-4,"dy":5},{"dx":-5,"dy":5},{"dx":-4,"dy":4},{"dx":-9,"dy":7},{"dx":-1,"dy":0},{"dx":-4,"dy":3},{"dx":-5,"dy":3},{"dx":-5,"dy":1},{"dx":0,"dy":0},{"dx":-2,"dy":1},{"dx":-1,"dy":0},{"dx":-3,"dy":1},{"dx":-2,"dy":1},{"dx":-4,"dy":1},{"dx":-1,"dy":0},{"dx":-11,"dy":1},{"dx":-4,"dy":0},{"dx":-4,"dy":0},{"dx":-5,"dy":0},{"dx":-6,"dy":0},{"dx":-5,"dy":0},{"dx":-12,"dy":-1},{"dx":-7,"dy":0},{"dx":-7,"dy":-1},{"dx":-15,"dy":-1},{"dx":-9,"dy":-2},{"dx":-6,"dy":-1},{"dx":-18,"dy":-3},{"dx":-12,"dy":-3},{"dx":-10,"dy":-4},{"dx":-11,"dy":-4},{"dx":-7,"dy":-4},{"dx":-8,"dy":-5},{"dx":-12,"dy":-7},{"dx":-5,"dy":-3},{"dx":-5,"dy":-3},{"dx":-6,"dy":-4},{"dx":-5,"dy":-3},{"dx":-4,"dy":-5},{"dx":-9,"dy":-7},{"dx":-4,"dy":-4},{"dx":-5,"dy":-5},{"dx":-3,"dy":-4},{"dx":-4,"dy":-4},{"dx":-3,"dy":-3},{"dx":-4,"dy":-7},{"dx":-4,"dy":-5},{"dx":-2,"dy":-5},{"dx":-2,"dy":-5},{"dx":-2,"dy":-6},{"dx":-1,"dy":-2},{"dx":-4,"dy":-12},{"dx":-1,"dy":-5},{"dx":-1,"dy":-6},{"dx":-1,"dy":-6},{"dx":-1,"dy":-5},{"dx":-2,"dy":-7},{"dx":0,"dy":-6},{"dx":-1,"dy":-5},{"dx":-1,"dy":-6},{"dx":-1,"dy":-7},{"dx":0,"dy":-12},{"dx":-1,"dy":-5},{"dx":-1,"dy":-6},{"dx":-1,"dy":-8},{"dx":-2,"dy":-7},{"dx":-1,"dy":-9},{"dx":-4,"dy":-12},{"dx":-4,"dy":-6},{"dx":-3,"dy":-7},{"dx":-5,"dy":-8},{"dx":-4,"dy":-8},{"dx":-4,"dy":-7},{"dx":-7,"dy":-9},{"dx":-4,"dy":-5},{"dx":-3,"dy":-5},{"dx":-2,"dy":-5},{"dx":-2,"dy":-5},{"dx":-3,"dy":-5},{"dx":-2,"dy":-6},{"dx":-3,"dy":-6},{"dx":-1,"dy":-5},{"dx":-2,"dy":-7},{"dx":-1,"dy":-6},{"dx":-1,"dy":-5},{"dx":0,"dy":-6},{"dx":0,"dy":-1},{"dx":0,"dy":-6},{"dx":0,"dy":-5},{"dx":0,"dy":-6},{"dx":0,"dy":0},{"dx":2,"dy":-12},{"dx":1,"dy":-1},{"dx":1,"dy":-6},{"dx":1,"dy":-6},{"dx":1,"dy":-1},{"dx":2,"dy":-5},{"dx":2,"dy":-6},{"dx":2,"dy":-4},{"dx":3,"dy":-5},{"dx":2,"dy":-4},{"dx":3,"dy":-4},{"dx":3,"dy":-4},{"dx":5,"dy":-4},{"dx":5,"dy":-5},{"dx":4,"dy":-4},{"dx":5,"dy":-4},{"dx":4,"dy":-4},{"dx":4,"dy":-2},{"dx":4,"dy":-3},{"dx":5,"dy":-2},{"dx":4,"dy":-2},{"dx":5,"dy":-1},{"dx":5,"dy":-2},{"dx":6,"dy":-2},{"dx":5,"dy":-2},{"dx":6,"dy":-1},{"dx":8,"dy":-1},{"dx":14,"dy":-3},{"dx":8,"dy":-1},{"dx":13,"dy":-1},{"dx":18,"dy":-1},{"dx":13,"dy":-1},{"dx":13,"dy":0},{"dx":21,"dy":0},{"dx":14,"dy":0},{"dx":15,"dy":0},{"dx":20,"dy":1},{"dx":12,"dy":0},{"dx":13,"dy":1},{"dx":11,"dy":1},{"dx":12,"dy":2},{"dx":10,"dy":2},{"dx":15,"dy":2},{"dx":9,"dy":1},{"dx":8,"dy":1},{"dx":14,"dy":2},{"dx":11,"dy":1},{"dx":9,"dy":1},{"dx":16,"dy":0},{"dx":10,"dy":1},{"dx":10,"dy":1},{"dx":17,"dy":0},{"dx":13,"dy":1},{"dx":11,"dy":0},{"dx":12,"dy":1},{"dx":18,"dy":0},{"dx":10,"dy":0},{"dx":8,"dy":0},{"dx":8,"dy":1},{"dx":11,"dy":0},{"dx":8,"dy":1},{"dx":7,"dy":1},{"dx":5,"dy":1},{"dx":6,"dy":1},{"dx":12,"dy":1},{"dx":7,"dy":1},{"dx":5,"dy":0},{"dx":7,"dy":1},{"dx":12,"dy":2},{"dx":5,"dy":0},{"dx":15,"dy":2},{"dx":6,"dy":0},{"dx":7,"dy":1},{"dx":6,"dy":1},{"dx":8,"dy":1},{"dx":7,"dy":1},{"dx":14,"dy":3},{"dx":9,"dy":1},{"dx":4,"dy":1},{"dx":15,"dy":4},{"dx":5,"dy":2},{"dx":7,"dy":2},{"dx":9,"dy":4},{"dx":7,"dy":2},{"dx":6,"dy":3},{"dx":12,"dy":6},{"dx":8,"dy":3},{"dx":7,"dy":2},{"dx":7,"dy":3},{"dx":6,"dy":3},{"dx":5,"dy":4},{"dx":10,"dy":7},{"dx":5,"dy":4},{"dx":5,"dy":4},{"dx":4,"dy":4},{"dx":3,"dy":4},{"dx":3,"dy":3},{"dx":5,"dy":9},{"dx":3,"dy":4},{"dx":2,"dy":5},{"dx":2,"dy":4},{"dx":3,"dy":4},{"dx":2,"dy":5},{"dx":4,"dy":10},{"dx":2,"dy":4},{"dx":2,"dy":6}],"trial_type":"plugin-moving-dots-2","trial_index":20,"plugin_version":"0.0.1","time_elapsed":99660},{"task":"fixation","rt":2210,"stimulus":"<div style=\"font-size:60px;\">+</div>","response":" ","trial_type":"html-keyboard-response","trial_index":21,"plugin_version":"2.1.0","time_elapsed":101872},{"task":"movingdots","control_change":0,"mouse_data":[{"dx":0,"dy":0},{"dx":0,"dy":0},{"dx":0,"dy":0},{"dx":0,"dy":0},{"dx":0,"dy":0},{"dx":0,"dy":0},{"dx":0,"dy":0},{"dx":0,"dy":0},{"dx":0,"dy":0},{"dx":0,"dy":0},{"dx":0,"dy":0},{"dx":0,"dy":0},{"dx":0,"dy":0},{"dx":0,"dy":0},{"dx":0,"dy":0},{"dx":0,"dy":0},{"dx":0,"dy":0},{"dx":0,"dy":0},{"dx":0,"dy":0},{"dx":0,"dy":0},{"dx":0,"dy":0},{"dx":0,"dy":0},{"dx":0,"dy":0},{"dx":0,"dy":0},{"dx":0,"dy":0},{"dx":0,"dy":0},{"dx":0,"dy":0},{"dx":0,"dy":0},{"dx":0,"dy":0},{"dx":0,"dy":0},{"dx":0,"dy":0},{"dx":0,"dy":0},{"dx":0,"dy":0},{"dx":0,"dy":0},{"dx":0,"dy":0},{"dx":0,"dy":0},{"dx":0,"dy":0},{"dx":0,"dy":0},{"dx":0,"dy":0},{"dx":0,"dy":0},{"dx":0,"dy":0},{"dx":0,"dy":0},{"dx":0,"dy":0},{"dx":0,"dy":0},{"dx":0,"dy":0},{"dx":0,"dy":0},{"dx":0,"dy":0},{"dx":0,"dy":0},{"dx":0,"dy":0},{"dx":0,"dy":0},{"dx":0,"dy":0},{"dx":0,"dy":0},{"dx":0,"dy":0},{"dx":0,"dy":0},{"dx":0,"dy":0},{"dx":0,"dy":0},{"dx":0,"dy":0},{"dx":0,"dy":0},{"dx":0,"dy":0},{"dx":0,"dy":0},{"dx":0,"dy":0},{"dx":0,"dy":0},{"dx":0,"dy":0},{"dx":0,"dy":0},{"dx":5,"dy":1},{"dx":5,"dy":1},{"dx":5,"dy":1},{"dx":5,"dy":1},{"dx":5,"dy":0},{"dx":5,"dy":1},{"dx":9,"dy":1},{"dx":5,"dy":1},{"dx":5,"dy":1},{"dx":5,"dy":1},{"dx":4,"dy":0},{"dx":5,"dy":1},{"dx":4,"dy":1},{"dx":7,"dy":0},{"dx":5,"dy":1},{"dx":8,"dy":1},{"dx":5,"dy":0},{"dx":4,"dy":0},{"dx":4,"dy":0},{"dx":5,"dy":0},{"dx":5,"dy":0},{"dx":5,"dy":0},{"dx":6,"dy":0},{"dx":0,"dy":0},{"dx":4,"dy":0},{"dx":5,"dy":0},{"dx":1,"dy":0},{"dx":4,"dy":0},{"dx":0,"dy":0},{"dx":1,"dy":0},{"dx":2,"dy":0},{"dx":4,"dy":0},{"dx":0,"dy":0},{"dx":2,"dy":0},{"dx":1,"dy":0},{"dx":1,"dy":0},{"dx":1,"dy":0},{"dx":2,"dy":0},{"dx":3,"dy":0},{"dx":1,"dy":0},{"dx":5,"dy":0},{"dx":4,"dy":0},{"dx":1,"dy":0},{"dx":5,"dy":0},{"dx":3,"dy":0},{"dx":1,"dy":0},{"dx":5,"dy":0},{"dx":4,"dy":0},{"dx":4,"dy":0},{"dx":5,"dy":1},{"dx":1,"dy":0},{"dx":5,"dy":0},{"dx":4,"dy":1},{"dx":5,"dy":0},{"dx":0,"dy":0},{"dx":4,"dy":1},{"dx":5,"dy":1},{"dx":6,"dy":1},{"dx":4,"dy":0},{"dx":6,"dy":1},{"dx":0,"dy":0},{"dx":5,"dy":1},{"dx":4,"dy":0},{"dx":1,"dy":0},{"dx":5,"dy":0},{"dx":1,"dy":1},{"dx":3,"dy":0},{"dx":1,"dy":0},{"dx":5,"dy":1},{"dx":0,"dy":0},{"dx":2,"dy":0},{"dx":1,"dy":0},{"dx":1,"dy":1},{"dx":2,"dy":0},{"dx":1,"dy":0},{"dx":1,"dy":0},{"dx":1,"dy":0},{"dx":1,"dy":0},{"dx":1,"dy":0},{"dx":2,"dy":1},{"dx":4,"dy":0},{"dx":0,"dy":0},{"dx":5,"dy":0},{"dx":4,"dy":1},{"dx":0,"dy":0},{"dx":6,"dy":0},{"dx":5,"dy":1},{"dx":4,"dy":0},{"dx":5,"dy":1},{"dx":1,"dy":0},{"dx":4,"dy":0},{"dx":4,"dy":0},{"dx":5,"dy":1},{"dx":4,"dy":1},{"dx":5,"dy":1},{"dx":5,"dy":1},{"dx":7,"dy":0},{"dx":5,"dy":1},{"dx":4,"dy":0},{"dx":1,"dy":0},{"dx":4,"dy":0},{"dx":10,"dy":0},{"dx":4,"dy":0},{"dx":1,"dy":0},{"dx":5,"dy":0},{"dx":5,"dy":0},{"dx":4,"dy":0},{"dx":1,"dy":0},{"dx":5,"dy":0},{"dx":0,"dy":0},{"dx":2,"dy":0},{"dx":4,"dy":0},{"dx":0,"dy":0},{"dx":6,"dy":0},{"dx":0,"dy":0},{"dx":5,"dy":-1},{"dx":1,"dy":0},{"dx":3,"dy":0},{"dx":6,"dy":-1},{"dx":5,"dy":-1},{"dx":5,"dy":-1},{"dx":4,"dy":-1},{"dx":5,"dy":-1},{"dx":5,"dy":-1},{"dx":4,"dy":0},{"dx":5,"dy":-2},{"dx":5,"dy":-1},{"dx":6,"dy":-1},{"dx":5,"dy":-1},{"dx":4,"dy":0},{"dx":5,"dy":-1},{"dx":4,"dy":-1},{"dx":1,"dy":0},{"dx":6,"dy":-2},{"dx":3,"dy":-1},{"dx":5,"dy":-1},{"dx":6,"dy":-1},{"dx":4,"dy":0},{"dx":5,"dy":-1},{"dx":6,"dy":-1},{"dx":8,"dy":-2},{"dx":5,"dy":-1},{"dx":5,"dy":-1},{"dx":6,"dy":-1},{"dx":6,"dy":-1},{"dx":4,"dy":0},{"dx":5,"dy":-2},{"dx":5,"dy":-1},{"dx":5,"dy":-1},{"dx":1,"dy":0},{"dx":5,"dy":-2},{"dx":0,"dy":0},{"dx":5,"dy":0},{"dx":4,"dy":-1},{"dx":1,"dy":-1},{"dx":6,"dy":-1},{"dx":4,"dy":-2},{"dx":0,"dy":0},{"dx":5,"dy":-3},{"dx":4,"dy":-3},{"dx":5,"dy":-2},{"dx":5,"dy":-2},{"dx":5,"dy":-2},{"dx":4,"dy":-3},{"dx":4,"dy":-2},{"dx":4,"dy":-3},{"dx":3,"dy":-3},{"dx":6,"dy":-3},{"dx":5,"dy":-2},{"dx":5,"dy":-3},{"dx":5,"dy":-2},{"dx":5,"dy":-3},{"dx":4,"dy":-3},{"dx":7,"dy":-5},{"dx":1,"dy":0},{"dx":3,"dy":-3},{"dx":5,"dy":-4},{"dx":3,"dy":-3},{"dx":4,"dy":-4},{"dx":1,"dy":-1},{"dx":1,"dy":-1},{"dx":5,"dy":-4},{"dx":3,"dy":-2},{"dx":0,"dy":-1},{"dx":3,"dy":-2},{"dx":7,"dy":-6},{"dx":4,"dy":-3},{"dx":3,"dy":-3},{"dx":4,"dy":-4},{"dx":4,"dy":-4},{"dx":4,"dy":-4},{"dx":6,"dy":-7},{"dx":1,"dy":-1},{"dx":3,"dy":-3},{"dx":4,"dy":-5},{"dx":4,"dy":-4},{"dx":3,"dy":-5},{"dx":4,"dy":-3},{"dx":3,"dy":-5},{"dx":3,"dy":-5},{"dx":3,"dy":-4},{"dx":6,"dy":-7},{"dx":3,"dy":-4},{"dx":3,"dy":-5},{"dx":3,"dy":-5},{"dx":2,"dy":-4},{"dx":2,"dy":-4},{"dx":3,"dy":-4},{"dx":3,"dy":-4},{"dx":3,"dy":-3},{"dx":3,"dy":-5},{"dx":3,"dy":-3},{"dx":2,"dy":-5},{"dx":3,"dy":-5},{"dx":2,"dy":-4},{"dx":0,"dy":-1},{"dx":2,"dy":-5},{"dx":1,"dy":-4},{"dx":3,"dy":-7},{"dx":2,"dy":-6},{"dx":0,"dy":0},{"dx":3,"dy":-6},{"dx":2,"dy":-6},{"dx":1,"dy":-1},{"dx":2,"dy":-5},{"dx":1,"dy":-6},{"dx":1,"dy":-5},{"dx":0,"dy":-1},{"dx":1,"dy":-6},{"dx":1,"dy":-6},{"dx":1,"dy":-6},{"dx":1,"dy":-1},{"dx":1,"dy":-5},{"dx":0,"dy":-1},{"dx":1,"dy":-6},{"dx":0,"dy":-2},{"dx":1,"dy":-6},{"dx":0,"dy":-5},{"dx":0,"dy":-6},{"dx":0,"dy":0},{"dx":0,"dy":-6},{"dx":-1,"dy":-6},{"dx":0,"dy":0},{"dx":-2,"dy":-7},{"dx":0,"dy":0},{"dx":-1,"dy":-6},{"dx":-2,"dy":-5},{"dx":0,"dy":-1},{"dx":-2,"dy":-5},{"dx":-1,"dy":-5},{"dx":-2,"dy":-5},{"dx":0,"dy":-1},{"dx":-2,"dy":-5},{"dx":-2,"dy":-4},{"dx":-3,"dy":-4},{"dx":-2,"dy":-4},{"dx":-3,"dy":-5},{"dx":-2,"dy":-6},{"dx":-3,"dy":-5},{"dx":0,"dy":-1},{"dx":-2,"dy":-4},{"dx":-4,"dy":-6},{"dx":-1,"dy":0},{"dx":-3,"dy":-5},{"dx":-3,"dy":-3},{"dx":-1,"dy":0},{"dx":-2,"dy":-5},{"dx":-1,"dy":-1},{"dx":-2,"dy":-4},{"dx":-1,"dy":0},{"dx":-3,"dy":-4},{"dx":-4,"dy":-4},{"dx":-1,"dy":-1},{"dx":-4,"dy":-3},{"dx":-3,"dy":-2},{"dx":-5,"dy":-4},{"dx":-7,"dy":-3},{"dx":-4,"dy":-2},{"dx":-5,"dy":-2},{"dx":-5,"dy":-2},{"dx":-5,"dy":0},{"dx":-4,"dy":-1},{"dx":-10,"dy":-3},{"dx":-7,"dy":-1},{"dx":-8,"dy":0},{"dx":-7,"dy":-1},{"dx":-7,"dy":0},{"dx":-6,"dy":0},{"dx":-11,"dy":0},{"dx":-5,"dy":0},{"dx":-5,"dy":0},{"dx":-4,"dy":0},{"dx":-5,"dy":1},{"dx":-5,"dy":1},{"dx":-9,"dy":2},{"dx":-5,"dy":0},{"dx":-4,"dy":2},{"dx":-1,"dy":0},{"dx":-9,"dy":3},{"dx":-4,"dy":2},{"dx":-5,"dy":2},{"dx":-5,"dy":2},{"dx":-1,"dy":0},{"dx":-4,"dy":3},{"dx":-3,"dy":2},{"dx":-4,"dy":4},{"dx":-4,"dy":4},{"dx":-1,"dy":0},{"dx":-4,"dy":3},{"dx":-7,"dy":8},{"dx":-3,"dy":3},{"dx":-3,"dy":3},{"dx":-4,"dy":3},{"dx":-4,"dy":3},{"dx":-4,"dy":4},{"dx":-3,"dy":4},{"dx":-7,"dy":9},{"dx":-4,"dy":4},{"dx":-3,"dy":5},{"dx":-3,"dy":5},{"dx":-3,"dy":4},{"dx":-3,"dy":5},{"dx":-6,"dy":10},{"dx":-3,"dy":5},{"dx":-2,"dy":6},{"dx":-3,"dy":5},{"dx":-2,"dy":5},{"dx":-3,"dy":4},{"dx":-5,"dy":11},{"dx":-2,"dy":5},{"dx":-2,"dy":5},{"dx":-2,"dy":4},{"dx":-2,"dy":5},{"dx":-3,"dy":6},{"dx":-2,"dy":5},{"dx":-1,"dy":5},{"dx":-1,"dy":5},{"dx":-2,"dy":7},{"dx":-1,"dy":6},{"dx":-1,"dy":5},{"dx":-1,"dy":5},{"dx":-1,"dy":1},{"dx":-1,"dy":6},{"dx":0,"dy":1},{"dx":-1,"dy":5},{"dx":0,"dy":1},{"dx":-1,"dy":6},{"dx":0,"dy":0},{"dx":0,"dy":2},{"dx":0,"dy":6},{"dx":0,"dy":0},{"dx":0,"dy":2},{"dx":0,"dy":4},{"dx":0,"dy":2},{"dx":0,"dy":1},{"dx":2,"dy":6},{"dx":0,"dy":1},{"dx":0,"dy":1},{"dx":1,"dy":6},{"dx":2,"dy":5},{"dx":0,"dy":1},{"dx":2,"dy":5},{"dx":0,"dy":1},{"dx":2,"dy":5},{"dx":2,"dy":4},{"dx":0,"dy":1},{"dx":3,"dy":4},{"dx":0,"dy":1},{"dx":3,"dy":4},{"dx":1,"dy":1},{"dx":2,"dy":4},{"dx":1,"dy":1},{"dx":2,"dy":4},{"dx":2,"dy":5},{"dx":1,"dy":0},{"dx":3,"dy":5},{"dx":0,"dy":0},{"dx":3,"dy":5},{"dx":1,"dy":1},{"dx":2,"dy":3},{"dx":4,"dy":3},{"dx":0,"dy":1},{"dx":4,"dy":3},{"dx":3,"dy":3},{"dx":1,"dy":0},{"dx":3,"dy":2},{"dx":3,"dy":3},{"dx":5,"dy":2},{"dx":0,"dy":0}],"trial_type":"plugin-moving-dots-2","trial_index":22,"plugin_version":"0.0.1","time_elapsed":109377},{"task":"fixation","rt":2173,"stimulus":"<div style=\"font-size:60px;\">+</div>","response":" ","trial_type":"html-keyboard-response","trial_index":23,"plugin_version":"2.1.0","time_elapsed":111551},{"task":"movingdots","control_change":0,"mouse_data":[{"dx":0,"dy":0},{"dx":0,"dy":0},{"dx":0,"dy":0},{"dx":0,"dy":0},{"dx":0,"dy":0},{"dx":0,"dy":0},{"dx":0,"dy":0},{"dx":0,"dy":0},{"dx":0,"dy":0},{"dx":0,"dy":0},{"dx":0,"dy":0},{"dx":0,"dy":0},{"dx":0,"dy":0},{"dx":0,"dy":0},{"dx":0,"dy":0},{"dx":0,"dy":0},{"dx":0,"dy":0},{"dx":0,"dy":0},{"dx":0,"dy":0},{"dx":0,"dy":0},{"dx":0,"dy":0},{"dx":0,"dy":0},{"dx":0,"dy":0},{"dx":0,"dy":0},{"dx":0,"dy":0},{"dx":0,"dy":0},{"dx":0,"dy":0},{"dx":0,"dy":0},{"dx":0,"dy":0},{"dx":0,"dy":0},{"dx":0,"dy":0},{"dx":0,"dy":0},{"dx":0,"dy":0},{"dx":0,"dy":0},{"dx":0,"dy":0},{"dx":0,"dy":0},{"dx":0,"dy":0},{"dx":0,"dy":0},{"dx":0,"dy":0},{"dx":0,"dy":0},{"dx":0,"dy":0},{"dx":0,"dy":0},{"dx":4,"dy":0},{"dx":6,"dy":0},{"dx":0,"dy":-1},{"dx":5,"dy":0},{"dx":0,"dy":0},{"dx":1,"dy":0},{"dx":4,"dy":-2},{"dx":1,"dy":0},{"dx":1,"dy":-1},{"dx":0,"dy":0},{"dx":4,"dy":-2},{"dx":0,"dy":-1},{"dx":4,"dy":-3},{"dx":8,"dy":-6},{"dx":4,"dy":-4},{"dx":4,"dy":-2},{"dx":4,"dy":-5},{"dx":4,"dy":-2},{"dx":3,"dy":-4},{"dx":9,"dy":-7},{"dx":4,"dy":-4},{"dx":5,"dy":-4},{"dx":5,"dy":-4},{"dx":4,"dy":-4},{"dx":4,"dy":-3},{"dx":7,"dy":-6},{"dx":4,"dy":-3},{"dx":5,"dy":-3},{"dx":4,"dy":-3},{"dx":3,"dy":-3},{"dx":3,"dy":-3},{"dx":5,"dy":-6},{"dx":5,"dy":-5},{"dx":3,"dy":-3},{"dx":3,"dy":-3},{"dx":4,"dy":-4},{"dx":5,"dy":-4},{"dx":5,"dy":-4},{"dx":9,"dy":-9},{"dx":4,"dy":-5},{"dx":4,"dy":-4},{"dx":5,"dy":-5},{"dx":6,"dy":-4},{"dx":12,"dy":-10},{"dx":8,"dy":-7},{"dx":7,"dy":-6},{"dx":16,"dy":-10},{"dx":11,"dy":-7},{"dx":9,"dy":-5},{"dx":14,"dy":-7},{"dx":14,"dy":-4},{"dx":12,"dy":-4},{"dx":15,"dy":-6},{"dx":10,"dy":-4},{"dx":10,"dy":-3},{"dx":10,"dy":-4},{"dx":6,"dy":-2},{"dx":6,"dy":-2},{"dx":11,"dy":-3},{"dx":6,"dy":-1},{"dx":5,"dy":-1},{"dx":5,"dy":-1},{"dx":5,"dy":-1},{"dx":5,"dy":0},{"dx":6,"dy":0},{"dx":8,"dy":-1},{"dx":5,"dy":0},{"dx":5,"dy":-1},{"dx":5,"dy":0},{"dx":4,"dy":0},{"dx":6,"dy":0},{"dx":10,"dy":-1},{"dx":6,"dy":-1},{"dx":4,"dy":0},{"dx":7,"dy":0},{"dx":4,"dy":0},{"dx":6,"dy":0},{"dx":4,"dy":0},{"dx":5,"dy":0},{"dx":5,"dy":-1},{"dx":4,"dy":0},{"dx":5,"dy":0},{"dx":5,"dy":0},{"dx":8,"dy":0},{"dx":1,"dy":0},{"dx":6,"dy":0},{"dx":6,"dy":0},{"dx":4,"dy":0},{"dx":4,"dy":0},{"dx":6,"dy":0},{"dx":4,"dy":0},{"dx":4,"dy":0},{"dx":5,"dy":1},{"dx":5,"dy":0},{"dx":5,"dy":1},{"dx":4,"dy":1},{"dx":1,"dy":0},{"dx":4,"dy":1},{"dx":4,"dy":1},{"dx":5,"dy":1},{"dx":1,"dy":0},{"dx":5,"dy":3},{"dx":4,"dy":1},{"dx":0,"dy":0},{"dx":1,"dy":2},{"dx":4,"dy":2},{"dx":1,"dy":0},{"dx":4,"dy":3},{"dx":0,"dy":0},{"dx":1,"dy":0},{"dx":3,"dy":3},{"dx":4,"dy":3},{"dx":0,"dy":0},{"dx":3,"dy":4},{"dx":3,"dy":2},{"dx":5,"dy":4},{"dx":3,"dy":3},{"dx":0,"dy":0},{"dx":3,"dy":3},{"dx":3,"dy":5},{"dx":0,"dy":0},{"dx":2,"dy":4},{"dx":3,"dy":4},{"dx":2,"dy":5},{"dx":0,"dy":0},{"dx":3,"dy":5},{"dx":2,"dy":5},{"dx":2,"dy":5},{"dx":2,"dy":5},{"dx":2,"dy":6},{"dx":1,"dy":5},{"dx":1,"dy":6},{"dx":0,"dy":1},{"dx":1,"dy":6},{"dx":1,"dy":7},{"dx":0,"dy":6},{"dx":0,"dy":1},{"dx":0,"dy":11},{"dx":0,"dy":5},{"dx":0,"dy":1},{"dx":-1,"dy":12},{"dx":-2,"dy":5},{"dx":-1,"dy":5},{"dx":-1,"dy":7},{"dx":-2,"dy":6},{"dx":-2,"dy":5},{"dx":-1,"dy":6},{"dx":-2,"dy":5},{"dx":-3,"dy":5},{"dx":-1,"dy":4},{"dx":-1,"dy":0},{"dx":0,"dy":2},{"dx":-3,"dy":5},{"dx":-1,"dy":5},{"dx":-1,"dy":0},{"dx":-1,"dy":6},{"dx":-1,"dy":1},{"dx":-1,"dy":4},{"dx":-2,"dy":7},{"dx":0,"dy":0},{"dx":0,"dy":4},{"dx":-1,"dy":5},{"dx":-1,"dy":1},{"dx":0,"dy":6},{"dx":0,"dy":1},{"dx":0,"dy":5},{"dx":0,"dy":4},{"dx":0,"dy":1},{"dx":0,"dy":5},{"dx":0,"dy":5},{"dx":1,"dy":5},{"dx":0,"dy":2},{"dx":1,"dy":5},{"dx":0,"dy":0},{"dx":1,"dy":2},{"dx":0,"dy":2},{"dx":1,"dy":1},{"dx":0,"dy":2},{"dx":1,"dy":1},{"dx":0,"dy":1},{"dx":0,"dy":1},{"dx":1,"dy":1},{"dx":0,"dy":0},{"dx":1,"dy":1},{"dx":0,"dy":0},{"dx":1,"dy":0},{"dx":1,"dy":1},{"dx":1,"dy":0},{"dx":5,"dy":1},{"dx":4,"dy":1},{"dx":4,"dy":0},{"dx":1,"dy":0},{"dx":6,"dy":1},{"dx":4,"dy":0},{"dx":4,"dy":0},{"dx":2,"dy":0},{"dx":3,"dy":0},{"dx":1,"dy":0},{"dx":1,"dy":0},{"dx":0,"dy":0},{"dx":1,"dy":0},{"dx":0,"dy":0},{"dx":0,"dy":0},{"dx":0,"dy":0},{"dx":0,"dy":0},{"dx":7,"dy":0},{"dx":5,"dy":0},{"dx":1,"dy":0},{"dx":1,"dy":0},{"dx":0,"dy":0},{"dx":8,"dy":0},{"dx":4,"dy":0},{"dx":1,"dy":-1},{"dx":5,"dy":0},{"dx":5,"dy":-1},{"dx":5,"dy":0},{"dx":1,"dy":0},{"dx":4,"dy":-2},{"dx":4,"dy":0},{"dx":1,"dy":-1},{"dx":5,"dy":-2},{"dx":4,"dy":-2},{"dx":4,"dy":-3},{"dx":4,"dy":-1},{"dx":4,"dy":-3},{"dx":8,"dy":-6},{"dx":5,"dy":-3},{"dx":3,"dy":-4},{"dx":4,"dy":-5},{"dx":5,"dy":-4},{"dx":3,"dy":-3},{"dx":7,"dy":-5},{"dx":3,"dy":-4},{"dx":4,"dy":-2},{"dx":4,"dy":-3},{"dx":3,"dy":-3},{"dx":4,"dy":-3},{"dx":6,"dy":-7},{"dx":3,"dy":-5},{"dx":1,"dy":0},{"dx":7,"dy":-8},{"dx":1,"dy":0},{"dx":4,"dy":-4},{"dx":3,"dy":-3},{"dx":3,"dy":-4},{"dx":0,"dy":-1},{"dx":5,"dy":-4},{"dx":2,"dy":-4},{"dx":3,"dy":-5},{"dx":4,"dy":-10},{"dx":2,"dy":-5},{"dx":0,"dy":-1},{"dx":2,"dy":-5},{"dx":1,"dy":-5},{"dx":1,"dy":-6},{"dx":1,"dy":-1},{"dx":1,"dy":-5},{"dx":0,"dy":-1},{"dx":1,"dy":-7},{"dx":0,"dy":-5},{"dx":0,"dy":-6},{"dx":0,"dy":-6},{"dx":0,"dy":-1},{"dx":0,"dy":-5},{"dx":-1,"dy":-7},{"dx":-1,"dy":-6},{"dx":0,"dy":-5},{"dx":-1,"dy":-9},{"dx":0,"dy":-1},{"dx":-2,"dy":-7},{"dx":-3,"dy":-7},{"dx":-1,"dy":-5},{"dx":-2,"dy":-6},{"dx":-5,"dy":-10},{"dx":-4,"dy":-5},{"dx":-3,"dy":-5},{"dx":-4,"dy":-5},{"dx":-5,"dy":-5},{"dx":-4,"dy":-4},{"dx":-4,"dy":-5},{"dx":-9,"dy":-10},{"dx":-5,"dy":-4},{"dx":-5,"dy":-4},{"dx":-6,"dy":-4},{"dx":-5,"dy":-3},{"dx":-4,"dy":-3},{"dx":-8,"dy":-5},{"dx":-4,"dy":-2},{"dx":-6,"dy":-3},{"dx":-7,"dy":-4},{"dx":-6,"dy":-3},{"dx":-6,"dy":-3},{"dx":-10,"dy":-6},{"dx":-6,"dy":-3},{"dx":-7,"dy":-2},{"dx":-7,"dy":-3},{"dx":-7,"dy":-3},{"dx":-8,"dy":-3},{"dx":-15,"dy":-3},{"dx":-8,"dy":-2},{"dx":-8,"dy":-2},{"dx":-8,"dy":-2},{"dx":-7,"dy":-1},{"dx":-7,"dy":-1},{"dx":-11,"dy":-1},{"dx":-6,"dy":0},{"dx":-6,"dy":0},{"dx":-7,"dy":0},{"dx":-7,"dy":0},{"dx":-7,"dy":1},{"dx":-11,"dy":1},{"dx":-9,"dy":2},{"dx":-7,"dy":0},{"dx":-7,"dy":1},{"dx":-6,"dy":1},{"dx":-12,"dy":3},{"dx":-13,"dy":3},{"dx":-8,"dy":2},{"dx":-7,"dy":1},{"dx":-8,"dy":3},{"dx":-8,"dy":2},{"dx":-7,"dy":1},{"dx":-11,"dy":4},{"dx":-5,"dy":1},{"dx":-5,"dy":2},{"dx":-8,"dy":2},{"dx":-6,"dy":2},{"dx":-5,"dy":2},{"dx":-9,"dy":3},{"dx":-5,"dy":2},{"dx":-6,"dy":2},{"dx":-5,"dy":1},{"dx":-4,"dy":2},{"dx":-5,"dy":2},{"dx":-9,"dy":5},{"dx":-4,"dy":2},{"dx":-5,"dy":2},{"dx":-5,"dy":3},{"dx":-5,"dy":3},{"dx":-4,"dy":3},{"dx":-8,"dy":5},{"dx":-4,"dy":4},{"dx":-4,"dy":3},{"dx":-5,"dy":4},{"dx":-4,"dy":4},{"dx":-5,"dy":3},{"dx":-8,"dy":8},{"dx":-4,"dy":4},{"dx":-4,"dy":4},{"dx":-4,"dy":4},{"dx":-6,"dy":5},{"dx":-5,"dy":5},{"dx":-11,"dy":8},{"dx":-3,"dy":3},{"dx":-4,"dy":3},{"dx":-3,"dy":4},{"dx":-3,"dy":2},{"dx":-4,"dy":3},{"dx":-3,"dy":3},{"dx":-8,"dy":6},{"dx":-5,"dy":3},{"dx":-5,"dy":4},{"dx":-6,"dy":3},{"dx":-6,"dy":4},{"dx":-5,"dy":3},{"dx":-10,"dy":5},{"dx":-4,"dy":3},{"dx":-6,"dy":3},{"dx":-5,"dy":3},{"dx":-4,"dy":2},{"dx":-4,"dy":2},{"dx":-5,"dy":3},{"dx":-4,"dy":3},{"dx":-5,"dy":2},{"dx":-4,"dy":2},{"dx":-5,"dy":2},{"dx":-1,"dy":1},{"dx":-4,"dy":2},{"dx":-1,"dy":0},{"dx":-1,"dy":0},{"dx":0,"dy":1},{"dx":-1,"dy":0},{"dx":-3,"dy":3},{"dx":-2,"dy":1},{"dx":-1,"dy":0},{"dx":0,"dy":0},{"dx":0,"dy":1},{"dx":0,"dy":0},{"dx":-1,"dy":0},{"dx":0,"dy":0},{"dx":-1,"dy":0},{"dx":-6,"dy":4},{"dx":-11,"dy":6},{"dx":-9,"dy":7},{"dx":-10,"dy":7},{"dx":-12,"dy":8},{"dx":-5,"dy":3},{"dx":-8,"dy":4},{"dx":-8,"dy":3},{"dx":0,"dy":0},{"dx":-4,"dy":2},{"dx":-2,"dy":0},{"dx":-5,"dy":1},{"dx":0,"dy":0},{"dx":-6,"dy":0},{"dx":-6,"dy":3},{"dx":-5,"dy":0},{"dx":-5,"dy":1},{"dx":-5,"dy":1},{"dx":-5,"dy":1}],"trial_type":"plugin-moving-dots-2","trial_index":24,"plugin_version":"0.0.1","time_elapsed":119060},{"task":"fixation","rt":1354,"stimulus":"<div style=\"font-size:60px;\">+</div>","response":" ","trial_type":"html-keyboard-response","trial_index":25,"plugin_version":"2.1.0","time_elapsed":120416},{"task":"movingdots","control_change":0,"mouse_data":[{"dx":0,"dy":0},{"dx":0,"dy":0},{"dx":0,"dy":0},{"dx":0,"dy":0},{"dx":0,"dy":0},{"dx":0,"dy":0},{"dx":0,"dy":0},{"dx":0,"dy":0},{"dx":0,"dy":0},{"dx":0,"dy":0},{"dx":0,"dy":0},{"dx":0,"dy":0},{"dx":0,"dy":0},{"dx":0,"dy":0},{"dx":0,"dy":0},{"dx":0,"dy":0},{"dx":0,"dy":0},{"dx":0,"dy":0},{"dx":0,"dy":0},{"dx":0,"dy":0},{"dx":0,"dy":0},{"dx":0,"dy":0},{"dx":0,"dy":0},{"dx":0,"dy":0},{"dx":0,"dy":0},{"dx":0,"dy":0},{"dx":0,"dy":0},{"dx":0,"dy":0},{"dx":0,"dy":0},{"dx":0,"dy":0},{"dx":0,"dy":0},{"dx":0,"dy":0},{"dx":0,"dy":0},{"dx":-3,"dy":-1},{"dx":-5,"dy":-3},{"dx":-4,"dy":-2},{"dx":-8,"dy":-3},{"dx":-1,"dy":-1},{"dx":-4,"dy":-1},{"dx":-9,"dy":-2},{"dx":-1,"dy":-1},{"dx":-5,"dy":-1},{"dx":-1,"dy":-1},{"dx":-4,"dy":-2},{"dx":-1,"dy":-1},{"dx":-4,"dy":-2},{"dx":-4,"dy":-4},{"dx":0,"dy":0},{"dx":-2,"dy":-2},{"dx":-4,"dy":-3},{"dx":0,"dy":0},{"dx":-1,"dy":-1},{"dx":-1,"dy":0},{"dx":0,"dy":-1},{"dx":-5,"dy":-4},{"dx":0,"dy":0},{"dx":-2,"dy":-1},{"dx":-4,"dy":-3},{"dx":0,"dy":-1},{"dx":-1,"dy":0},{"dx":-1,"dy":-1},{"dx":-2,"dy":-2},{"dx":-1,"dy":-1},{"dx":-1,"dy":-1},{"dx":-1,"dy":-1},{"dx":-1,"dy":0},{"dx":-1,"dy":-1},{"dx":-3,"dy":-2},{"dx":-1,"dy":-1},{"dx":0,"dy":0},{"dx":-2,"dy":-1},{"dx":-3,"dy":-3},{"dx":0,"dy":0},{"dx":-1,"dy":-1},{"dx":0,"dy":0},{"dx":-2,"dy":-2},{"dx":-1,"dy":-1},{"dx":-3,"dy":-3},{"dx":0,"dy":0},{"dx":-1,"dy":-1},{"dx":-1,"dy":-1},{"dx":-3,"dy":-4},{"dx":-1,"dy":0},{"dx":-3,"dy":-3},{"dx":-2,"dy":-1},{"dx":-1,"dy":-2},{"dx":-3,"dy":-2},{"dx":-1,"dy":-1},{"dx":-3,"dy":-2},{"dx":-4,"dy":-2},{"dx":-1,"dy":-1},{"dx":-4,"dy":-2},{"dx":-1,"dy":-1},{"dx":-4,"dy":-3},{"dx":-4,"dy":-3},{"dx":0,"dy":0},{"dx":-4,"dy":-3},{"dx":-1,"dy":-1},{"dx":-1,"dy":-1},{"dx":-3,"dy":-3},{"dx":-2,"dy":-1},{"dx":-2,"dy":-4},{"dx":-1,"dy":0},{"dx":-1,"dy":-2},{"dx":-3,"dy":-4},{"dx":-1,"dy":-1},{"dx":-3,"dy":-4},{"dx":0,"dy":-1},{"dx":-3,"dy":-4},{"dx":-2,"dy":-5},{"dx":-2,"dy":-5},{"dx":0,"dy":-1},{"dx":-3,"dy":-5},{"dx":0,"dy":-1},{"dx":-2,"dy":-6},{"dx":-1,"dy":-1},{"dx":-2,"dy":-6},{"dx":0,"dy":0},{"dx":-2,"dy":-6},{"dx":0,"dy":-1},{"dx":-2,"dy":-6},{"dx":-1,"dy":-5},{"dx":-1,"dy":-6},{"dx":0,"dy":0},{"dx":-2,"dy":-5},{"dx":-3,"dy":-6},{"dx":0,"dy":-1},{"dx":-2,"dy":-5},{"dx":-1,"dy":-4},{"dx":-2,"dy":-5},{"dx":-1,"dy":-7},{"dx":-1,"dy":-1},{"dx":-1,"dy":-5},{"dx":-2,"dy":-6},{"dx":0,"dy":-1},{"dx":-2,"dy":-5},{"dx":-1,"dy":-6},{"dx":-1,"dy":-1},{"dx":-1,"dy":-7},{"dx":0,"dy":-1},{"dx":-1,"dy":-5},{"dx":-1,"dy":-6},{"dx":0,"dy":-1},{"dx":-1,"dy":-5},{"dx":0,"dy":-2},{"dx":-1,"dy":-5},{"dx":-1,"dy":-1},{"dx":-1,"dy":-6},{"dx":0,"dy":-1},{"dx":-1,"dy":-2},{"dx":-1,"dy":-6},{"dx":-1,"dy":-6},{"dx":0,"dy":0},{"dx":-1,"dy":-6},{"dx":0,"dy":-1},{"dx":0,"dy":-2},{"dx":-2,"dy":-5},{"dx":-1,"dy":-1},{"dx":-2,"dy":-6},{"dx":0,"dy":0},{"dx":-3,"dy":-6},{"dx":0,"dy":-1},{"dx":0,"dy":-1},{"dx":-3,"dy":-4},{"dx":-2,"dy":-5},{"dx":-1,"dy":-1},{"dx":-3,"dy":-4},{"dx":-3,"dy":-3},{"dx":-1,"dy":-1},{"dx":-5,"dy":-3},{"dx":-4,"dy":-2},{"dx":-5,"dy":-2},{"dx":-4,"dy":-2},{"dx":0,"dy":0},{"dx":-6,"dy":-1},{"dx":-1,"dy":0},{"dx":-1,"dy":-1},{"dx":-4,"dy":0},{"dx":-1,"dy":0},{"dx":-5,"dy":0},{"dx":0,"dy":0},{"dx":-5,"dy":2},{"dx":-5,"dy":3},{"dx":-4,"dy":3},{"dx":-5,"dy":3},{"dx":-4,"dy":4},{"dx":-5,"dy":3},{"dx":-7,"dy":6},{"dx":-4,"dy":3},{"dx":-5,"dy":3},{"dx":-5,"dy":4},{"dx":-2,"dy":1},{"dx":-5,"dy":4},{"dx":-2,"dy":2},{"dx":-2,"dy":1},{"dx":-3,"dy":3},{"dx":-3,"dy":3},{"dx":-4,"dy":4},{"dx":0,"dy":1},{"dx":-3,"dy":4},{"dx":-3,"dy":4},{"dx":0,"dy":0},{"dx":-3,"dy":3},{"dx":-4,"dy":5},{"dx":-3,"dy":4},{"dx":0,"dy":1},{"dx":-4,"dy":5},{"dx":-2,"dy":5},{"dx":-2,"dy":4},{"dx":-1,"dy":1},{"dx":-1,"dy":4},{"dx":0,"dy":1},{"dx":-3,"dy":5},{"dx":-2,"dy":4},{"dx":0,"dy":1},{"dx":-2,"dy":4},{"dx":0,"dy":1},{"dx":-1,"dy":2},{"dx":-1,"dy":4},{"dx":-1,"dy":1},{"dx":0,"dy":1},{"dx":-2,"dy":5},{"dx":0,"dy":1},{"dx":0,"dy":1},{"dx":-2,"dy":6},{"dx":0,"dy":1},{"dx":-2,"dy":6},{"dx":0,"dy":1},{"dx":-2,"dy":5},{"dx":0,"dy":1},{"dx":-2,"dy":5},{"dx":-3,"dy":6},{"dx":0,"dy":1},{"dx":-2,"dy":5},{"dx":-2,"dy":4},{"dx":0,"dy":1},{"dx":-2,"dy":6},{"dx":0,"dy":0},{"dx":0,"dy":1},{"dx":-2,"dy":6},{"dx":0,"dy":1},{"dx":-2,"dy":5},{"dx":0,"dy":1},{"dx":-1,"dy":1},{"dx":-1,"dy":5},{"dx":0,"dy":1},{"dx":-1,"dy":6},{"dx":0,"dy":1},{"dx":0,"dy":2},{"dx":-1,"dy":5},{"dx":0,"dy":1},{"dx":-1,"dy":6},{"dx":-1,"dy":4},{"dx":0,"dy":5},{"dx":-1,"dy":5},{"dx":0,"dy":1},{"dx":0,"dy":4},{"dx":-1,"dy":6},{"dx":0,"dy":6},{"dx":0,"dy":1},{"dx":0,"dy":4},{"dx":0,"dy":2},{"dx