[{"success":true,"rt":5099,"trial_type":"fullscreen","trial_index":0,"plugin_version":"2.1.0","time_elapsed":6104},{"task":"fixation","rt":1515,"stimulus":"<div style=\"font-size:60px;\">+</div>","response":" ","trial_type":"html-keyboard-response","trial_index":1,"plugin_version":"2.1.0","time_elapsed":7623},{"task":"movingdots","control_change":0,"mouse_data":[{"dx":0,"dy":0},{"dx":0,"dy":0},{"dx":0,"dy":0},{"dx":0,"dy":0},{"dx":0,"dy":0},{"dx":0,"dy":0},{"dx":0,"dy":0},{"dx":0,"dy":0},{"dx":0,"dy":0},{"dx":0,"dy":0},{"dx":0,"dy":0},{"dx":0,"dy":0},{"dx":0,"dy":0},{"dx":0,"dy":0},{"dx":0,"dy":0},{"dx":0,"dy":0},{"dx":0,"dy":0},{"dx":0,"dy":0},{"dx":0,"dy":0},{"dx":0,"dy":0},{"dx":0,"dy":0},{"dx":0,"dy":0},{"dx":0,"dy":0},{"dx":0,"dy":0},{"dx":0,"dy":0},{"dx":0,"dy":0},{"dx":0,"dy":0},{"dx":0,"dy":0},{"dx":0,"dy":0},{"dx":0,"dy":0},{"dx":0,"dy":0},{"dx":4,"dy":0},{"dx":10,"dy":-4},{"dx":4,"dy":-2},{"dx":1,"dy":-1},{"dx":5,"dy":-3},{"dx":5,"dy":-2},{"dx":5,"dy":-3},{"dx":4,"dy":-2},{"dx":8,"dy":-6},{"dx":3,"dy":-4},{"dx":1,"dy":-1},{"dx":3,"dy":-4},{"dx":3,"dy":-5},{"dx":-1,"dy":-6},{"dx":-3,"dy":-3},{"dx":-4,"dy":-3},{"dx":-4,"dy":-2},{"dx":-4,"dy":-3},{"dx":0,"dy":-1},{"dx":-2,"dy":-4},{"dx":-1,"dy":-11},{"dx":0,"dy":-8},{"dx":0,"dy":-6},{"dx":0,"dy":-8},{"dx":-1,"dy":-5},{"dx":-1,"dy":-7},{"dx":-2,"dy":-9},{"dx":0,"dy":-8},{"dx":-1,"dy":-7},{"dx":-3,"dy":-9},{"dx":-3,"dy":-4},{"dx":-4,"dy":-7},{"dx":-4,"dy":-5},{"dx":-6,"dy":-6},{"dx":-5,"dy":-4},{"dx":-7,"dy":-2},{"dx":-11,"dy":0},{"dx":-9,"dy":2},{"dx":-15,"dy":4},{"dx":-12,"dy":3},{"dx":-12,"dy":4},{"dx":-10,"dy":5},{"dx":-10,"dy":5},{"dx":-8,"dy":6},{"dx":-11,"dy":11},{"dx":-7,"dy":8},{"dx":-4,"dy":7},{"dx":-3,"dy":8},{"dx":-2,"dy":8},{"dx":-2,"dy":13},{"dx":0,"dy":18},{"dx":0,"dy":12},{"dx":0,"dy":10},{"dx":1,"dy":17},{"dx":1,"dy":9},{"dx":2,"dy":7},{"dx":4,"dy":8},{"dx":5,"dy":5},{"dx":5,"dy":4},{"dx":14,"dy":11},{"dx":11,"dy":5},{"dx":9,"dy":7},{"dx":17,"dy":9},{"dx":11,"dy":5},{"dx":13,"dy":3},{"dx":20,"dy":5},{"dx":14,"dy":3},{"dx":14,"dy":3},{"dx":17,"dy":4},{"dx":10,"dy":3},{"dx":7,"dy":2},{"dx":5,"dy":2},{"dx":4,"dy":3},{"dx":1,"dy":0},{"dx":2,"dy":5},{"dx":2,"dy":7},{"dx":0,"dy":7},{"dx":-3,"dy":12},{"dx":-1,"dy":8},{"dx":-2,"dy":6},{"dx":-5,"dy":16},{"dx":-1,"dy":12},{"dx":-2,"dy":11},{"dx":-2,"dy":9},{"dx":-2,"dy":6},{"dx":-3,"dy":6},{"dx":-11,"dy":17},{"dx":-8,"dy":11},{"dx":-7,"dy":8},{"dx":-10,"dy":9},{"dx":-5,"dy":3},{"dx":-6,"dy":1},{"dx":-7,"dy":1},{"dx":-8,"dy":0},{"dx":-7,"dy":0},{"dx":-11,"dy":-1},{"dx":-6,"dy":-2},{"dx":-7,"dy":-1},{"dx":-6,"dy":-3},{"dx":-5,"dy":-3},{"dx":-3,"dy":-2},{"dx":-4,"dy":-4},{"dx":-4,"dy":-5},{"dx":-1,"dy":-1},{"dx":-3,"dy":-4},{"dx":-4,"dy":-3},{"dx":-3,"dy":-5},{"dx":-2,"dy":-6},{"dx":-3,"dy":-6},{"dx":-3,"dy":-7},{"dx":-4,"dy":-11},{"dx":-2,"dy":-4},{"dx":-2,"dy":-5},{"dx":0,"dy":-1},{"dx":-2,"dy":-14},{"dx":-1,"dy":-8},{"dx":0,"dy":-7},{"dx":-1,"dy":-6},{"dx":0,"dy":-6},{"dx":0,"dy":-6},{"dx":1,"dy":-15},{"dx":2,"dy":-7},{"dx":2,"dy":-6},{"dx":2,"dy":-3},{"dx":3,"dy":-4},{"dx":3,"dy":-3},{"dx":7,"dy":-5},{"dx":4,"dy":-4},{"dx":5,"dy":-3},{"dx":6,"dy":-4},{"dx":4,"dy":-3},{"dx":5,"dy":-2},{"dx":11,"dy":-4},{"dx":8,"dy":-2},{"dx":9,"dy":-1},{"dx":8,"dy":0},{"dx":7,"dy":-1},{"dx":13,"dy":-1},{"dx":16,"dy":-1},{"dx":5,"dy":-1},{"dx":7,"dy":-2},{"dx":12,"dy":-5},{"dx":7,"dy":-2},{"dx":6,"dy":-3},{"dx":9,"dy":-5},{"dx":11,"dy":-7},{"dx":8,"dy":-4},{"dx":10,"dy":-9},{"dx":5,"dy":-6},{"dx":4,"dy":-8},{"dx":5,"dy":-18},{"dx":2,"dy":-12},{"dx":0,"dy":-7},{"dx":-2,"dy":-14},{"dx":-3,"dy":-11},{"dx":-6,"dy":-14},{"dx":-11,"dy":-15},{"dx":-7,"dy":-10},{"dx":-9,"dy":-7},{"dx":-13,"dy":-12},{"dx":-8,"dy":-8},{"dx":-7,"dy":-7},{"dx":-8,"dy":-7},{"dx":-6,"dy":-3},{"dx":-6,"dy":-3},{"dx":-10,"dy":-3},{"dx":-5,"dy":-1},{"dx":-6,"dy":-1},{"dx":-7,"dy":0},{"dx":-7,"dy":1},{"dx":-7,"dy":1},{"dx":-12,"dy":5},{"dx":-5,"dy":3},{"dx":-6,"dy":2},{"dx":-5,"dy":2},{"dx":-5,"dy":2},{"dx":-3,"dy":3},{"dx":-4,"dy":3},{"dx":-2,"dy":3},{"dx":-1,"dy":5},{"dx":-1,"dy":6},{"dx":0,"dy":1},{"dx":2,"dy":4},{"dx":2,"dy":3},{"dx":5,"dy":5},{"dx":5,"dy":2},{"dx":4,"dy":3},{"dx":5,"dy":2},{"dx":6,"dy":2},{"dx":12,"dy":3},{"dx":6,"dy":1},{"dx":6,"dy":1},{"dx":12,"dy":1},{"dx":11,"dy":0},{"dx":9,"dy":1},{"dx":15,"dy":1},{"dx":11,"dy":0},{"dx":10,"dy":1},{"dx":13,"dy":1},{"dx":10,"dy":2},{"dx":10,"dy":2},{"dx":7,"dy":2},{"dx":6,"dy":1},{"dx":5,"dy":2},{"dx":16,"dy":4},{"dx":11,"dy":2},{"dx":4,"dy":2},{"dx":11,"dy":7},{"dx":4,"dy":2},{"dx":4,"dy":4},{"dx":4,"dy":6},{"dx":7,"dy":14},{"dx":3,"dy":11},{"dx":3,"dy":12},{"dx":2,"dy":11},{"dx":2,"dy":6},{"dx":3,"dy":11},{"dx":1,"dy":5},{"dx":1,"dy":10},{"dx":-1,"dy":19},{"dx":-2,"dy":12},{"dx":-3,"dy":9},{"dx":-3,"dy":7},{"dx":-4,"dy":7},{"dx":-7,"dy":13},{"dx":-10,"dy":15},{"dx":-6,"dy":11},{"dx":-6,"dy":10},{"dx":-9,"dy":14},{"dx":-5,"dy":6},{"dx":-5,"dy":5},{"dx":-8,"dy":7},{"dx":-6,"dy":4},{"dx":-7,"dy":4},{"dx":-16,"dy":5},{"dx":-7,"dy":1},{"dx":-8,"dy":-1},{"dx":-9,"dy":-1},{"dx":-8,"dy":-3},{"dx":-7,"dy":-2},{"dx":-13,"dy":-8},{"dx":-9,"dy":-6},{"dx":-9,"dy":-9},{"dx":-13,"dy":-16},{"dx":-4,"dy":-5},{"dx":-5,"dy":-6},{"dx":-12,"dy":-18},{"dx":-6,"dy":-11},{"dx":-6,"dy":-9},{"dx":-6,"dy":-8},{"dx":-6,"dy":-10},{"dx":-5,"dy":-11},{"dx":-10,"dy":-15},{"dx":-7,"dy":-11},{"dx":-8,"dy":-8},{"dx":-8,"dy":-11},{"dx":-5,"dy":-7},{"dx":-4,"dy":-6},{"dx":-6,"dy":-5},{"dx":-4,"dy":-5},{"dx":-4,"dy":-6},{"dx":-8,"dy":-9},{"dx":-6,"dy":-5},{"dx":-4,"dy":-5},{"dx":-6,"dy":-4},{"dx":-6,"dy":-3},{"dx":-6,"dy":-2},{"dx":-9,"dy":-2},{"dx":-5,"dy":0},{"dx":-4,"dy":0},{"dx":-4,"dy":0},{"dx":-6,"dy":1},{"dx":-5,"dy":1},{"dx":-4,"dy":2},{"dx":-8,"dy":6},{"dx":-5,"dy":5},{"dx":-4,"dy":5},{"dx":-5,"dy":6},{"dx":-2,"dy":6},{"dx":-3,"dy":6},{"dx":-3,"dy":11},{"dx":-1,"dy":6},{"dx":0,"dy":5},{"dx":-1,"dy":6},{"dx":0,"dy":6},{"dx":0,"dy":8},{"dx":-1,"dy":15},{"dx":-2,"dy":10},{"dx":-1,"dy":8},{"dx":-1,"dy":11},{"dx":-2,"dy":9},{"dx":-2,"dy":6},{"dx":-6,"dy":11},{"dx":-3,"dy":4},{"dx":-6,"dy":4},{"dx":-6,"dy":3},{"dx":-5,"dy":1},{"dx":-5,"dy":0},{"dx":-10,"dy":-1},{"dx":-5,"dy":-3},{"dx":-5,"dy":-3},{"dx":-5,"dy":-5},{"dx":-4,"dy":-6},{"dx":-4,"dy":-12},{"dx":-3,"dy":-10},{"dx":-1,"dy":-8},{"dx":0,"dy":-7},{"dx":1,"dy":-16},{"dx":4,"dy":-10},{"dx":4,"dy":-10},{"dx":5,"dy":-8},{"dx":4,"dy":-4},{"dx":4,"dy":-5},{"dx":11,"dy":-9},{"dx":6,"dy":-4},{"dx":5,"dy":-3},{"dx":4,"dy":-4},{"dx":5,"dy":-2},{"dx":6,"dy":-3},{"dx":14,"dy":-4},{"dx":6,"dy":0},{"dx":11,"dy":-1},{"dx":18,"dy":0},{"dx":5,"dy":0},{"dx":7,"dy":0},{"dx":13,"dy":5},{"dx":8,"dy":2},{"dx":8,"dy":4},{"dx":7,"dy":3},{"dx":5,"dy":4},{"dx":5,"dy":4},{"dx":15,"dy":10},{"dx":9,"dy":7},{"dx":8,"dy":5},{"dx":10,"dy":8},{"dx":8,"dy":7},{"dx":8,"dy":6},{"dx":12,"dy":9},{"dx":6,"dy":5},{"dx":7,"dy":3},{"dx":8,"dy":4},{"dx":8,"dy":2},{"dx":6,"dy":2},{"dx":13,"dy":3},{"dx":9,"dy":0},{"dx":11,"dy":0},{"dx":16,"dy":-1},{"dx":10,"dy":-2},{"dx":6,"dy":-1},{"dx":12,"dy":-5},{"dx":5,"dy":-3},{"dx":4,"dy":-4},{"dx":8,"dy":-11},{"dx":7,"dy":-8},{"dx":6,"dy":-8},{"dx":8,"dy":-11},{"dx":3,"dy":-6},{"dx":2,"dy":-5},{"dx":3,"dy":-6},{"dx":2,"dy":-5},{"dx":1,"dy":-5},{"dx":0,"dy":-14},{"dx":-2,"dy":-10},{"dx":-1,"dy":-10},{"dx":-4,"dy":-9},{"dx":-3,"dy":-7},{"dx":-4,"dy":-6},{"dx":-13,"dy":-13},{"dx":-8,"dy":-8},{"dx":-8,"dy":-8},{"dx":-7,"dy":-7},{"dx":-5,"dy":-3},{"dx":-4,"dy":-3},{"dx":-9,"dy":-4},{"dx":-4,"dy":0},{"dx":-6,"dy":0},{"dx":-8,"dy":0},{"dx":-6,"dy":0},{"dx":-6,"dy":2},{"dx":-13,"dy":5},{"dx":-6,"dy":3},{"dx":-4,"dy":3},{"dx":-6,"dy":2},{"dx":-5,"dy":3},{"dx":-6,"dy":3},{"dx":-14,"dy":6},{"dx":-8,"dy":4},{"dx":-5,"dy":3},{"dx":-5,"dy":3},{"dx":-6,"dy":4},{"dx":-5,"dy":4},{"dx":-11,"dy":12},{"dx":-7,"dy":9},{"dx":-6,"dy":8},{"dx":-13,"dy":15},{"dx":-8,"dy":9},{"dx":-7,"dy":9},{"dx":-10,"dy":11},{"dx":-5,"dy":6},{"dx":-5,"dy":6},{"dx":-5,"dy":5},{"dx":-6,"dy":6},{"dx":-6,"dy":5},{"dx":-5,"dy":5},{"dx":-13,"dy":9},{"dx":-5,"dy":3},{"dx":-13,"dy":6},{"dx":-7,"dy":2},{"dx":-5,"dy":0},{"dx":-4,"dy":0},{"dx":-5,"dy":0},{"dx":-6,"dy":-1},{"dx":-8,"dy":-5},{"dx":-4,"dy":-6},{"dx":-4,"dy":-5},{"dx":-4,"dy":-11},{"dx":-2,"dy":-15},{"dx":-1,"dy":-11},{"dx":0,"dy":-12},{"dx":2,"dy":-18},{"dx":3,"dy":-10}],"trial_type":"plugin-moving-dots-2","trial_index":2,"plugin_version":"0.0.1","time_elapsed":15135},{"task":"fixation","rt":2037,"stimulus":"<div style=\"font-size:60px;\">+</div>","response":" ","trial_type":"html-keyboard-response","trial_index":3,"plugin_version":"2.1.0","time_elapsed":17173},{"task":"movingdots","control_change":0,"mouse_data":[{"dx":0,"dy":0},{"dx":0,"dy":0},{"dx":0,"dy":0},{"dx":0,"dy":0},{"dx":0,"dy":0},{"dx":0,"dy":0},{"dx":0,"dy":0},{"dx":0,"dy":0},{"dx":0,"dy":0},{"dx":0,"dy":0},{"dx":0,"dy":0},{"dx":0,"dy":0},{"dx":0,"dy":0},{"dx":0,"dy":0},{"dx":0,"dy":0},{"dx":0,"dy":0},{"dx":0,"dy":0},{"dx":0,"dy":0},{"dx":0,"dy":0},{"dx":0,"dy":0},{"dx":3,"dy":0},{"dx":6,"dy":-1},{"dx":6,"dy":0},{"dx":10,"dy":-2},{"dx":5,"dy":0},{"dx":4,"dy":-1},{"dx":5,"dy":-1},{"dx":5,"dy":-1},{"dx":4,"dy":-2},{"dx":9,"dy":-1},{"dx":4,"dy":-1},{"dx":5,"dy":-1},{"dx":6,"dy":-2},{"dx":6,"dy":-2},{"dx":8,"dy":-2},{"dx":11,"dy":-2},{"dx":6,"dy":-1},{"dx":5,"dy":-1},{"dx":12,"dy":-3},{"dx":10,"dy":-3},{"dx":7,"dy":-2},{"dx":6,"dy":-2},{"dx":6,"dy":-2},{"dx":6,"dy":-2},{"dx":13,"dy":-4},{"dx":8,"dy":-3},{"dx":7,"dy":-3},{"dx":20,"dy":-7},{"dx":10,"dy":-3},{"dx":5,"dy":-3},{"dx":10,"dy":-7},{"dx":1,"dy":-1},{"dx":4,"dy":-2},{"dx":7,"dy":-5},{"dx":4,"dy":-4},{"dx":4,"dy":-3},{"dx":3,"dy":-5},{"dx":0,"dy":-1},{"dx":3,"dy":-5},{"dx":1,"dy":-7},{"dx":0,"dy":-4},{"dx":0,"dy":-6},{"dx":-4,"dy":-8},{"dx":-4,"dy":-5},{"dx":-5,"dy":-5},{"dx":-5,"dy":-7},{"dx":-5,"dy":-6},{"dx":-6,"dy":-6},{"dx":-11,"dy":-10},{"dx":-5,"dy":-3},{"dx":-6,"dy":-4},{"dx":-7,"dy":-3},{"dx":-10,"dy":-4},{"dx":-11,"dy":-2},{"dx":-14,"dy":-4},{"dx":-11,"dy":-2},{"dx":-10,"dy":-2},{"dx":-16,"dy":-3},{"dx":-10,"dy":-3},{"dx":-5,"dy":-2},{"dx":-18,"dy":-4},{"dx":-6,"dy":-3},{"dx":-7,"dy":-3},{"dx":-7,"dy":-3},{"dx":-4,"dy":-3},{"dx":-6,"dy":-2},{"dx":-8,"dy":-4},{"dx":-2,"dy":0},{"dx":-4,"dy":-2},{"dx":-7,"dy":-3},{"dx":-7,"dy":-2},{"dx":-4,"dy":-1},{"dx":-6,"dy":0},{"dx":-5,"dy":-1},{"dx":-4,"dy":0},{"dx":-7,"dy":0},{"dx":-5,"dy":0},{"dx":-1,"dy":0},{"dx":-9,"dy":-1},{"dx":-4,"dy":0},{"dx":-6,"dy":0},{"dx":-6,"dy":-1},{"dx":-5,"dy":0},{"dx":-4,"dy":0},{"dx":-6,"dy":0},{"dx":-4,"dy":-1},{"dx":-5,"dy":-1},{"dx":-3,"dy":-1},{"dx":-9,"dy":-4},{"dx":0,"dy":0},{"dx":-3,"dy":-4},{"dx":-1,"dy":-1},{"dx":-1,"dy":-2},{"dx":-1,"dy":-5},{"dx":1,"dy":-6},{"dx":4,"dy":-4},{"dx":8,"dy":-3},{"dx":9,"dy":-5},{"dx":7,"dy":-4},{"dx":7,"dy":-2},{"dx":13,"dy":-4},{"dx":9,"dy":-2},{"dx":5,"dy":-2},{"dx":6,"dy":-1},{"dx":5,"dy":-2},{"dx":5,"dy":-1},{"dx":10,"dy":-1},{"dx":5,"dy":0},{"dx":5,"dy":-1},{"dx":5,"dy":-2},{"dx":5,"dy":-1},{"dx":5,"dy":-1},{"dx":9,"dy":-2},{"dx":5,"dy":-2},{"dx":5,"dy":-1},{"dx":5,"dy":-2},{"dx":6,"dy":-1},{"dx":7,"dy":0},{"dx":12,"dy":1},{"dx":6,"dy":2},{"dx":6,"dy":1},{"dx":13,"dy":2},{"dx":8,"dy":1},{"dx":7,"dy":1},{"dx":8,"dy":2},{"dx":14,"dy":2},{"dx":11,"dy":0},{"dx":15,"dy":1},{"dx":13,"dy":0},{"dx":13,"dy":0},{"dx":17,"dy":0},{"dx":11,"dy":1},{"dx":13,"dy":0},{"dx":10,"dy":1},{"dx":6,"dy":1},{"dx":5,"dy":1},{"dx":13,"dy":1},{"dx":7,"dy":0},{"dx":0,"dy":0},{"dx":5,"dy":0},{"dx":0,"dy":0},{"dx":1,"dy":0},{"dx":4,"dy":-2},{"dx":5,"dy":-3},{"dx":1,"dy":-1},{"dx":1,"dy":0},{"dx":0,"dy":-1},{"dx":0,"dy":0},{"dx":1,"dy":0},{"dx":0,"dy":0},{"dx":0,"dy":0},{"dx":0,"dy":-2},{"dx":1,"dy":0},{"dx":0,"dy":0},{"dx":0,"dy":0},{"dx":0,"dy":0},{"dx":0,"dy":0},{"dx":0,"dy":0},{"dx":0,"dy":0},{"dx":0,"dy":0},{"dx":0,"dy":0},{"dx":0,"dy":0},{"dx":0,"dy":0},{"dx":0,"dy":0},{"dx":0,"dy":0},{"dx":0,"dy":0},{"dx":0,"dy":0},{"dx":0,"dy":0},{"dx":0,"dy":0},{"dx":-2,"dy":-2},{"dx":-3,"dy":-5},{"dx":-4,"dy":-4},{"dx":-3,"dy":-5},{"dx":-6,"dy":-8},{"dx":-2,"dy":-4},{"dx":-3,"dy":-4},{"dx":-3,"dy":-4},{"dx":-2,"dy":-4},{"dx":-3,"dy":-3},{"dx":-4,"dy":-8},{"dx":-2,"dy":-4},{"dx":-4,"dy":-5},{"dx":-3,"dy":-5},{"dx":-3,"dy":-5},{"dx":-3,"dy":-5},{"dx":-7,"dy":-7},{"dx":-9,"dy":-4},{"dx":-9,"dy":-3},{"dx":-9,"dy":-2},{"dx":-15,"dy":0},{"dx":-11,"dy":4},{"dx":-16,"dy":10},{"dx":-7,"dy":7},{"dx":-7,"dy":7},{"dx":-6,"dy":8},{"dx":-5,"dy":8},{"dx":-4,"dy":6},{"dx":-6,"dy":11},{"dx":-2,"dy":5},{"dx":-1,"dy":5},{"dx":-1,"dy":5},{"dx":0,"dy":6},{"dx":1,"dy":6},{"dx":6,"dy":8},{"dx":5,"dy":4},{"dx":5,"dy":4},{"dx":14,"dy":6},{"dx":13,"dy":3},{"dx":12,"dy":2},{"dx":17,"dy":3},{"dx":13,"dy":0},{"dx":10,"dy":1},{"dx":14,"dy":2},{"dx":10,"dy":1},{"dx":11,"dy":2},{"dx":13,"dy":4},{"dx":10,"dy":2},{"dx":11,"dy":4},{"dx":12,"dy":6},{"dx":5,"dy":2},{"dx":4,"dy":3},{"dx":4,"dy":3},{"dx":5,"dy":5},{"dx":4,"dy":7},{"dx":5,"dy":12},{"dx":2,"dy":6},{"dx":0,"dy":7},{"dx":0,"dy":10},{"dx":-1,"dy":11},{"dx":-1,"dy":10},{"dx":-3,"dy":16},{"dx":0,"dy":7},{"dx":0,"dy":6},{"dx":0,"dy":5},{"dx":0,"dy":5},{"dx":-1,"dy":6},{"dx":-1,"dy":10},{"dx":-1,"dy":1},{"dx":-1,"dy":5},{"dx":0,"dy":1},{"dx":-5,"dy":3},{"dx":0,"dy":0},{"dx":-10,"dy":1},{"dx":-5,"dy":0},{"dx":-6,"dy":-1},{"dx":-7,"dy":-2},{"dx":-5,"dy":-2},{"dx":-5,"dy":-4},{"dx":-7,"dy":-8},{"dx":-2,"dy":-6},{"dx":0,"dy":-9},{"dx":0,"dy":-8},{"dx":1,"dy":-5},{"dx":2,"dy":-5},{"dx":2,"dy":-7},{"dx":3,"dy":-6},{"dx":2,"dy":-6},{"dx":4,"dy":-8},{"dx":10,"dy":-13},{"dx":5,"dy":-6},{"dx":5,"dy":-5},{"dx":4,"dy":-4},{"dx":3,"dy":-4},{"dx":6,"dy":-4},{"dx":13,"dy":-9},{"dx":7,"dy":-3},{"dx":8,"dy":-3},{"dx":7,"dy":-2},{"dx":5,"dy":-2},{"dx":7,"dy":-2},{"dx":11,"dy":-6},{"dx":5,"dy":-3},{"dx":5,"dy":-5},{"dx":4,"dy":-4},{"dx":2,"dy":-5},{"dx":2,"dy":-6},{"dx":0,"dy":-4},{"dx":0,"dy":-5},{"dx":-1,"dy":-6},{"dx":-5,"dy":-12},{"dx":-4,"dy":-5},{"dx":-6,"dy":-6},{"dx":-6,"dy":-5},{"dx":-10,"dy":-5},{"dx":-8,"dy":-4},{"dx":-15,"dy":-4},{"dx":-9,"dy":-2},{"dx":-9,"dy":0},{"dx":-15,"dy":1},{"dx":-4,"dy":1},{"dx":-8,"dy":2},{"dx":-12,"dy":8},{"dx":-5,"dy":4},{"dx":-6,"dy":7},{"dx":-5,"dy":7},{"dx":-3,"dy":7},{"dx":-5,"dy":13},{"dx":-1,"dy":6},{"dx":-1,"dy":6},{"dx":0,"dy":7},{"dx":1,"dy":6},{"dx":1,"dy":5},{"dx":1,"dy":8},{"dx":6,"dy":17},{"dx":0,"dy":1},{"dx":9,"dy":16},{"dx":7,"dy":13},{"dx":6,"dy":9},{"dx":9,"dy":10},{"dx":13,"dy":17},{"dx":6,"dy":13},{"dx":7,"dy":15},{"dx":10,"dy":21},{"dx":6,"dy":9},{"dx":4,"dy":6},{"dx":8,"dy":12},{"dx":4,"dy":6},{"dx":2,"dy":8},{"dx":1,"dy":8},{"dx":-1,"dy":15},{"dx":-3,"dy":11},{"dx":-4,"dy":6},{"dx":-4,"dy":6},{"dx":-5,"dy":5},{"dx":-14,"dy":12},{"dx":-11,"dy":7},{"dx":-8,"dy":5},{"dx":-8,"dy":4},{"dx":-7,"dy":3},{"dx":-6,"dy":2},{"dx":-14,"dy":2},{"dx":-4,"dy":1},{"dx":-1,"dy":0},{"dx":-6,"dy":0},{"dx":-5,"dy":0},{"dx":-5,"dy":0},{"dx":-8,"dy":-4},{"dx":-5,"dy":-3},{"dx":0,"dy":-1},{"dx":-5,"dy":-4},{"dx":-2,"dy":-6},{"dx":0,"dy":-7},{"dx":3,"dy":-7},{"dx":3,"dy":-5},{"dx":4,"dy":-6},{"dx":5,"dy":-4},{"dx":13,"dy":-10},{"dx":5,"dy":-3},{"dx":11,"dy":-6},{"dx":5,"dy":-1},{"dx":4,"dy":0},{"dx":7,"dy":0},{"dx":7,"dy":1},{"dx":7,"dy":3},{"dx":9,"dy":7},{"dx":4,"dy":4},{"dx":5,"dy":3},{"dx":11,"dy":10},{"dx":4,"dy":3},{"dx":5,"dy":6},{"dx":9,"dy":7},{"dx":4,"dy":4},{"dx":5,"dy":3},{"dx":6,"dy":2},{"dx":5,"dy":1},{"dx":7,"dy":0},{"dx":4,"dy":0},{"dx":5,"dy":-1},{"dx":4,"dy":-3},{"dx":5,"dy":-10},{"dx":1,"dy":-4},{"dx":0,"dy":-7},{"dx":0,"dy":-8},{"dx":-2,"dy":-6},{"dx":-3,"dy":-5},{"dx":-8,"dy":-10},{"dx":-5,"dy":-5},{"dx":-5,"dy":-6},{"dx":-6,"dy":-5},{"dx":-6,"dy":-4},{"dx":-8,"dy":-3},{"dx":-11,"dy":-3},{"dx":-13,"dy":0},{"dx":-9,"dy":1},{"dx":-19,"dy":5},{"dx":-13,"dy":5},{"dx":-12,"dy":6},{"dx":-22,"dy":7},{"dx":-12,"dy":4},{"dx":-11,"dy":5},{"dx":-19,"dy":8},{"dx":-12,"dy":5},{"dx":-13,"dy":4},{"dx":-23,"dy":6},{"dx":-15,"dy":2},{"dx":-12,"dy":2},{"dx":-14,"dy":2},{"dx":-16,"dy":0},{"dx":-8,"dy":-1},{"dx":-8,"dy":-1},{"dx":-6,"dy":-1},{"dx":-6,"dy":-1},{"dx":-5,"dy":-2},{"dx":-10,"dy":-4},{"dx":-5,"dy":-3},{"dx":-6,"dy":-3},{"dx":-6,"dy":-4},{"dx":-5,"dy":-3},{"dx":-5,"dy":-5},{"dx":-8,"dy":-10},{"dx":-3,"dy":-6},{"dx":-3,"dy":-5},{"dx":-2,"dy":-6},{"dx":-2,"dy":-5},{"dx":-1,"dy":-7},{"dx":0,"dy":-8},{"dx":0,"dy":-9},{"dx":0,"dy":-8},{"dx":0,"dy":-10},{"dx":0,"dy":-7},{"dx":0,"dy":-6},{"dx":0,"dy":-7},{"dx":-1,"dy":-7},{"dx":-3,"dy":-5},{"dx":-5,"dy":-6},{"dx":-5,"dy":-3},{"dx":-7,"dy":-3},{"dx":-7,"dy":-1},{"dx":-8,"dy":-1},{"dx":-8,"dy":1},{"dx":-13,"dy":4},{"dx":-4,"dy":3},{"dx":-3,"dy":4}],"trial_type":"plugin-moving-dots-2","trial_index":4,"plugin_version":"0.0.1","time_elapsed":24685},{"task":"fixation","rt":1494,"stimulus":"<div style=\"font-size:60px;\">+</div>","response":" ","trial_type":"html-keyboard-response","trial_index":5,"plugin_version":"2.1.0","time_elapsed":26180},{"task":"movingdots","control_change":0,"mouse_data":[{"dx":0,"dy":0},{"dx":0,"dy":0},{"dx":0,"dy":0},{"dx":0,"dy":0},{"dx":0,"dy":0},{"dx":0,"dy":0},{"dx":0,"dy":0},{"dx":0,"dy":0},{"dx":0,"dy":0},{"dx":0,"dy":0},{"dx":0,"dy":0},{"dx":0,"dy":0},{"dx":0,"dy":0},{"dx":0,"dy":0},{"dx":0,"dy":0},{"dx":0,"dy":0},{"dx":0,"dy":0},{"dx":0,"dy":0},{"dx":0,"dy":0},{"dx":0,"dy":0},{"dx":0,"dy":0},{"dx":0,"dy":0},{"dx":0,"dy":0},{"dx":0,"dy":0},{"dx":0,"dy":0},{"dx":0,"dy":0},{"dx":0,"dy":0},{"dx":0,"dy":0},{"dx":0,"dy":0},{"dx":0,"dy":0},{"dx":0,"dy":0},{"dx":0,"dy":0},{"dx":0,"dy":0},{"dx":0,"dy":0},{"dx":0,"dy":0},{"dx":0,"dy":0},{"dx":0,"dy":0},{"dx":0,"dy":0},{"dx":0,"dy":0},{"dx":0,"dy":0},{"dx":0,"dy":0},{"dx":0,"dy":0},{"dx":0,"dy":0},{"dx":0,"dy":0},{"dx":0,"dy":0},{"dx":0,"dy":0},{"dx":0,"dy":0},{"dx":0,"dy":0},{"dx":0,"dy":0},{"dx":0,"dy":0},{"dx":0,"dy":0},{"dx":0,"dy":0},{"dx":0,"dy":0},{"dx":0,"dy":0},{"dx":0,"dy":0},{"dx":0,"dy":0},{"dx":0,"dy":0},{"dx":0,"dy":0},{"dx":0,"dy":0},{"dx":0,"dy":0},{"dx":0,"dy":0},{"dx":0,"dy":0},{"dx":0,"dy":0},{"dx":0,"dy":0},{"dx":0,"dy":0},{"dx":0,"dy":0},{"dx":0,"dy":0},{"dx":0,"dy":0},{"dx":0,"dy":0},{"dx":0,"dy":0},{"dx":0,"dy":0},{"dx":0,"dy":0},{"dx":0,"dy":0},{"dx":0,"dy":0},{"dx":0,"dy":0},{"dx":0,"dy":0},{"dx":0,"dy":0},{"dx":0,"dy":0},{"dx":0,"dy":0},{"dx":0,"dy":0},{"dx":0,"dy":0},{"dx":0,"dy":0},{"dx":0,"dy":0},{"dx":0,"dy":0},{"dx":0,"dy":0},{"dx":0,"dy":0},{"dx":0,"dy":0},{"dx":0,"dy":0},{"dx":0,"dy":0},{"dx":0,"dy":0},{"dx":0,"dy":0},{"dx":0,"dy":0},{"dx":0,"dy":0},{"dx":0,"dy":0},{"dx":0,"dy":0},{"dx":0,"dy":0},{"dx":0,"dy":0},{"dx":0,"dy":0},{"dx":0,"dy":0},{"dx":0,"dy":0},{"dx":0,"dy":0},{"dx":0,"dy":0},{"dx":0,"dy":0},{"dx":0,"dy":0},{"dx":0,"dy":0},{"dx":0,"dy":0},{"dx":0,"dy":0},{"dx":0,"dy":0},{"dx":0,"dy":0},{"dx":0,"dy":0},{"dx":0,"dy":0},{"dx":25,"dy":0},{"dx":30,"dy":5},{"dx":34,"dy":17},{"dx":12,"dy":11},{"dx":5,"dy":18},{"dx":-11,"dy":38},{"dx":-22,"dy":19},{"dx":-24,"dy":11},{"dx":-58,"dy":6},{"dx":-34,"dy":0},{"dx":-27,"dy":-2},{"dx":-18,"dy":-3},{"dx":-6,"dy":-5},{"dx":-3,"dy":-5},{"dx":6,"dy":-18},{"dx":8,"dy":-11},{"dx":3,"dy":-4},{"dx":1,"dy":-1},{"dx":0,"dy":0},{"dx":0,"dy":-1},{"dx":6,"dy":-2},{"dx":10,"dy":1},{"dx":15,"dy":0},{"dx":17,"dy":3},{"dx":10,"dy":2},{"dx":11,"dy":2},{"dx":14,"dy":1},{"dx":9,"dy":0},{"dx":11,"dy":-3},{"dx":20,"dy":-6},{"dx":17,"dy":-6},{"dx":22,"dy":-7},{"dx":37,"dy":-19},{"dx":18,"dy":-11},{"dx":9,"dy":-5},{"dx":6,"dy":-7},{"dx":3,"dy":-5},{"dx":1,"dy":-6},{"dx":1,"dy":-12},{"dx":0,"dy":-6},{"dx":0,"dy":-5},{"dx":-2,"dy":-6},{"dx":-3,"dy":-6},{"dx":-6,"dy":-5},{"dx":-16,"dy":-10},{"dx":-12,"dy":-4},{"dx":-11,"dy":-2},{"dx":-17,"dy":-4},{"dx":-11,"dy":-1},{"dx":-12,"dy":0},{"dx":-15,"dy":1},{"dx":-9,"dy":2},{"dx":-6,"dy":2},{"dx":-6,"dy":2},{"dx":-5,"dy":2},{"dx":-6,"dy":2},{"dx":-10,"dy":6},{"dx":-5,"dy":3},{"dx":-5,"dy":4},{"dx":-4,"dy":4},{"dx":-4,"dy":3},{"dx":-4,"dy":5},{"dx":-5,"dy":7},{"dx":-1,"dy":6},{"dx":-1,"dy":6},{"dx":-1,"dy":10},{"dx":-1,"dy":9},{"dx":0,"dy":7},{"dx":1,"dy":15},{"dx":1,"dy":7},{"dx":0,"dy":11},{"dx":0,"dy":16},{"dx":-2,"dy":12},{"dx":-1,"dy":6},{"dx":-6,"dy":15},{"dx":-5,"dy":8},{"dx":-5,"dy":7},{"dx":-5,"dy":7},{"dx":-6,"dy":6},{"dx":-5,"dy":4},{"dx":-11,"dy":7},{"dx":-7,"dy":2},{"dx":-7,"dy":3},{"dx":-14,"dy":3},{"dx":-12,"dy":0},{"dx":-12,"dy":0},{"dx":-19,"dy":-4},{"dx":-15,"dy":-4},{"dx":-13,"dy":-4},{"dx":-17,"dy":-7},{"dx":-10,"dy":-6},{"dx":-8,"dy":-6},{"dx":-7,"dy":-7},{"dx":-5,"dy":-6},{"dx":-4,"dy":-5},{"dx":-5,"dy":-14},{"dx":-1,"dy":-6},{"dx":0,"dy":-8},{"dx":2,"dy":-9},{"dx":6,"dy":-15},{"dx":5,"dy":-11},{"dx":6,"dy":-10},{"dx":5,"dy":-7},{"dx":4,"dy":-5},{"dx":4,"dy":-4},{"dx":9,"dy":-6},{"dx":6,"dy":-4},{"dx":7,"dy":-3},{"dx":7,"dy":-2},{"dx":7,"dy":-1},{"dx":6,"dy":-1},{"dx":12,"dy":1},{"dx":5,"dy":1},{"dx":4,"dy":1},{"dx":5,"dy":3},{"dx":4,"dy":4},{"dx":5,"dy":4},{"dx":7,"dy":9},{"dx":4,"dy":5},{"dx":5,"dy":6},{"dx":9,"dy":12},{"dx":7,"dy":10},{"dx":7,"dy":10},{"dx":11,"dy":15},{"dx":9,"dy":9},{"dx":10,"dy":8},{"dx":18,"dy":14},{"dx":11,"dy":10},{"dx":7,"dy":9},{"dx":12,"dy":10},{"dx":11,"dy":7},{"dx":11,"dy":6},{"dx":15,"dy":9},{"dx":10,"dy":5},{"dx":11,"dy":6},{"dx":18,"dy":8},{"dx":9,"dy":4},{"dx":12,"dy":4},{"dx":19,"dy":2},{"dx":14,"dy":1},{"dx":15,"dy":1},{"dx":19,"dy":-1},{"dx":11,"dy":-2},{"dx":13,"dy":-3},{"dx":19,"dy":-9},{"dx":11,"dy":-9},{"dx":12,"dy":-9},{"dx":15,"dy":-17},{"dx":8,"dy":-12},{"dx":6,"dy":-14},{"dx":6,"dy":-17},{"dx":2,"dy":-11},{"dx":0,"dy":-12},{"dx":-8,"dy":-20},{"dx":-9,"dy":-13},{"dx":-14,"dy":-12},{"dx":-33,"dy":-19},{"dx":-27,"dy":-13},{"dx":-25,"dy":-9},{"dx":-28,"dy":-11},{"dx":-15,"dy":-5},{"dx":-16,"dy":-3},{"dx":-19,"dy":-4},{"dx":-13,"dy":-1},{"dx":-12,"dy":0},{"dx":-11,"dy":-2},{"dx":-6,"dy":0},{"dx":-6,"dy":0},{"dx":-15,"dy":2},{"dx":-10,"dy":3},{"dx":-9,"dy":5},{"dx":-14,"dy":8},{"dx":-9,"dy":8},{"dx":-3,"dy":3},{"dx":-11,"dy":15},{"dx":-7,"dy":8},{"dx":-6,"dy":8},{"dx":-7,"dy":10},{"dx":-10,"dy":16},{"dx":-7,"dy":10},{"dx":-3,"dy":5},{"dx":-13,"dy":15},{"dx":-8,"dy":9},{"dx":-8,"dy":6},{"dx":-15,"dy":10},{"dx":-9,"dy":6},{"dx":-12,"dy":4},{"dx":-15,"dy":4},{"dx":-9,"dy":1},{"dx":-7,"dy":0},{"dx":-8,"dy":0},{"dx":-7,"dy":-2},{"dx":-5,"dy":-2},{"dx":-7,"dy":-9},{"dx":-4,"dy":-6},{"dx":-3,"dy":-5},{"dx":-2,"dy":-7},{"dx":-2,"dy":-8},{"dx":-1,"dy":-8},{"dx":2,"dy":-17},{"dx":6,"dy":-11},{"dx":7,"dy":-14},{"dx":11,"dy":-16},{"dx":8,"dy":-10},{"dx":9,"dy":-7},{"dx":6,"dy":-6},{"dx":4,"dy":-4},{"dx":6,"dy":-5},{"dx":12,"dy":-8},{"dx":10,"dy":-3},{"dx":13,"dy":-2},{"dx":20,"dy":-3},{"dx":12,"dy":-1},{"dx":12,"dy":0},{"dx":12,"dy":1},{"dx":7,"dy":2},{"dx":8,"dy":4},{"dx":16,"dy":4},{"dx":10,"dy":4},{"dx":9,"dy":4},{"dx":17,"dy":9},{"dx":11,"dy":7},{"dx":9,"dy":6},{"dx":11,"dy":11},{"dx":7,"dy":8},{"dx":9,"dy":7},{"dx":14,"dy":15},{"dx":12,"dy":9},{"dx":17,"dy":12},{"dx":24,"dy":17},{"dx":13,"dy":10},{"dx":12,"dy":10},{"dx":18,"dy":13},{"dx":13,"dy":7},{"dx":20,"dy":7},{"dx":24,"dy":5},{"dx":14,"dy":2},{"dx":15,"dy":1},{"dx":17,"dy":1},{"dx":9,"dy":0},{"dx":11,"dy":-2},{"dx":11,"dy":-2},{"dx":7,"dy":-3},{"dx":5,"dy":-1},{"dx":5,"dy":0},{"dx":1,"dy":0},{"dx":1,"dy":0},{"dx":0,"dy":0},{"dx":-4,"dy":3},{"dx":-7,"dy":2},{"dx":-19,"dy":10},{"dx":-17,"dy":12},{"dx":-17,"dy":13},{"dx":-21,"dy":15},{"dx":-13,"dy":9},{"dx":-14,"dy":7},{"dx":-19,"dy":13},{"dx":-15,"dy":7},{"dx":-13,"dy":6},{"dx":-11,"dy":5},{"dx":-14,"dy":2},{"dx":-14,"dy":0},{"dx":-19,"dy":-1},{"dx":-11,"dy":-1},{"dx":-10,"dy":-1},{"dx":-16,"dy":0},{"dx":-10,"dy":0},{"dx":-8,"dy":0},{"dx":-14,"dy":-1},{"dx":-10,"dy":-2},{"dx":-9,"dy":-1},{"dx":-18,"dy":-4},{"dx":-10,"dy":-3},{"dx":-13,"dy":-4},{"dx":-20,"dy":-7},{"dx":-13,"dy":-4},{"dx":-14,"dy":-5},{"dx":-20,"dy":-6},{"dx":-13,"dy":-6},{"dx":-9,"dy":-6},{"dx":-13,"dy":-10},{"dx":-4,"dy":-3},{"dx":-6,"dy":-7},{"dx":-7,"dy":-13},{"dx":-2,"dy":-5},{"dx":-2,"dy":-6},{"dx":-1,"dy":-7},{"dx":0,"dy":-5},{"dx":0,"dy":-8},{"dx":-1,"dy":-8},{"dx":0,"dy":-5},{"dx":1,"dy":-5},{"dx":2,"dy":-6},{"dx":2,"dy":-5},{"dx":1,"dy":-5},{"dx":3,"dy":-6},{"dx":2,"dy":-5},{"dx":0,"dy":-1},{"dx":1,"dy":-2},{"dx":0,"dy":-2},{"dx":0,"dy":0},{"dx":0,"dy":0},{"dx":0,"dy":0},{"dx":0,"dy":0},{"dx":0,"dy":0},{"dx":2,"dy":12},{"dx":0,"dy":6},{"dx":0,"dy":5},{"dx":0,"dy":6},{"dx":0,"dy":6},{"dx":0,"dy":5},{"dx":0,"dy":5},{"dx":1,"dy":5},{"dx":0,"dy":4},{"dx":2,"dy":12},{"dx":0,"dy":1},{"dx":2,"dy":6},{"dx":2,"dy":7},{"dx":1,"dy":6},{"dx":2,"dy":4},{"dx":3,"dy":7},{"dx":3,"dy":4},{"dx":3,"dy":3},{"dx":7,"dy":7},{"dx":4,"dy":2},{"dx":5,"dy":3},{"dx":4,"dy":2},{"dx":6,"dy":2},{"dx":13,"dy":3},{"dx":8,"dy":2},{"dx":6,"dy":2},{"dx":7,"dy":1},{"dx":17,"dy":1},{"dx":5,"dy":0},{"dx":6,"dy":0},{"dx":17,"dy":-1},{"dx":8,"dy":-1},{"dx":8,"dy":-1},{"dx":5,"dy":-1},{"dx":2,"dy":-2},{"dx":7,"dy":-2},{"dx":11,"dy":-3}],"trial_type":"plugin-moving-dots-2","trial_index":6,"plugin_version":"0.0.1","time_elapsed":33685},{"task":"fixation","rt":1487,"stimulus":"<div style=\"font-size:60px;\">+</div>","response":" ","trial_type":"html-keyboard-response","trial_index":7,"plugin_version":"2.1.0","time_elapsed":35173},{"task":"movingdots","control_change":0,"mouse_data":[{"dx":0,"dy":0},{"dx":0,"dy":0},{"dx":0,"dy":0},{"dx":0,"dy":0},{"dx":0,"dy":0},{"dx":0,"dy":0},{"dx":0,"dy":0},{"dx":0,"dy":0},{"dx":0,"dy":0},{"dx":0,"dy":0},{"dx":0,"dy":0},{"dx":0,"dy":0},{"dx":0,"dy":0},{"dx":0,"dy":0},{"dx":0,"dy":0},{"dx":0,"dy":0},{"dx":0,"dy":0},{"dx":0,"dy":0},{"dx":0,"dy":0},{"dx":0,"dy":0},{"dx":0,"dy":0},{"dx":0,"dy":0},{"dx":0,"dy":0},{"dx":-1,"dy":-4},{"dx":-1,"dy":-6},{"dx":-2,"dy":-5},{"dx":-3,"dy":-6},{"dx":-5,"dy":-7},{"dx":-7,"dy":-8},{"dx":-6,"dy":-8},{"dx":-7,"dy":-6},{"dx":-4,"dy":-6},{"dx":-7,"dy":-5},{"dx":-10,"dy":-8},{"dx":-5,"dy":-6},{"dx":-4,"dy":-8},{"dx":-3,"dy":-7},{"dx":-1,"dy":-6},{"dx":0,"dy":-5},{"dx":5,"dy":-11},{"dx":5,"dy":-5},{"dx":6,"dy":-6},{"dx":13,"dy":-9},{"dx":10,"dy":-5},{"dx":7,"dy":-3},{"dx":7,"dy":-3},{"dx":8,"dy":-2},{"dx":10,"dy":-3},{"dx":9,"dy":-1},{"dx":11,"dy":0},{"dx":13,"dy":1},{"dx":17,"dy":3},{"dx":12,"dy":5},{"dx":12,"dy":4},{"dx":22,"dy":8},{"dx":10,"dy":8},{"dx":11,"dy":7},{"dx":15,"dy":10},{"dx":8,"dy":8},{"dx":6,"dy":11},{"dx":6,"dy":16},{"dx":2,"dy":12},{"dx":2,"dy":12},{"dx":0,"dy":21},{"dx":0,"dy":14},{"dx":-2,"dy":13},{"dx":-5,"dy":21},{"dx":-4,"dy":11},{"dx":-4,"dy":7},{"dx":-4,"dy":7},{"dx":-5,"dy":6},{"dx":-5,"dy":7},{"dx":-14,"dy":11},{"dx":-9,"dy":6},{"dx":-6,"dy":5},{"dx":-15,"dy":6},{"dx":-11,"dy":4},{"dx":-14,"dy":4},{"dx":-11,"dy":3},{"dx":-17,"dy":4},{"dx":-11,"dy":2},{"dx":-10,"dy":1},{"dx":-7,"dy":0},{"dx":-12,"dy":0},{"dx":-10,"dy":-2},{"dx":-7,"dy":-2},{"dx":-7,"dy":-3},{"dx":-6,"dy":-2},{"dx":-13,"dy":-10},{"dx":-7,"dy":-7},{"dx":-4,"dy":-5},{"dx":-6,"dy":-8},{"dx":-4,"dy":-7},{"dx":-3,"dy":-7},{"dx":-4,"dy":-13},{"dx":-1,"dy":-7},{"dx":0,"dy":-7},{"dx":0,"dy":-9},{"dx":0,"dy":-7},{"dx":0,"dy":-8},{"dx":2,"dy":-15},{"dx":2,"dy":-8},{"dx":2,"dy":-9},{"dx":2,"dy":-10},{"dx":3,"dy":-8},{"dx":2,"dy":-6},{"dx":3,"dy":-7},{"dx":2,"dy":-4},{"dx":0,"dy":-2},{"dx":2,"dy":-6},{"dx":3,"dy":-5},{"dx":0,"dy":-1},{"dx":3,"dy":-4},{"dx":0,"dy":-1},{"dx":1,"dy":-2},{"dx":4,"dy":-3},{"dx":1,"dy":-1},{"dx":5,"dy":-1},{"dx":8,"dy":-2},{"dx":4,"dy":0},{"dx":6,"dy":0},{"dx":5,"dy":2},{"dx":4,"dy":2},{"dx":5,"dy":2},{"dx":14,"dy":6},{"dx":5,"dy":3},{"dx":6,"dy":4},{"dx":5,"dy":4},{"dx":4,"dy":4},{"dx":6,"dy":4},{"dx":9,"dy":6},{"dx":3,"dy":4},{"dx":3,"dy":4},{"dx":3,"dy":4},{"dx":2,"dy":5},{"dx":1,"dy":7},{"dx":1,"dy":6},{"dx":0,"dy":4},{"dx":0,"dy":6},{"dx":0,"dy":12},{"dx":-1,"dy":6},{"dx":-2,"dy":8},{"dx":-1,"dy":8},{"dx":-1,"dy":5},{"dx":-1,"dy":5},{"dx":-3,"dy":11},{"dx":-3,"dy":7},{"dx":-6,"dy":8},{"dx":-9,"dy":14},{"dx":-6,"dy":7},{"dx":-7,"dy":5},{"dx":-7,"dy":5},{"dx":-11,"dy":4},{"dx":-12,"dy":5},{"dx":-18,"dy":4},{"dx":-10,"dy":3},{"dx":-8,"dy":3},{"dx":-9,"dy":1},{"dx":-6,"dy":0},{"dx":-5,"dy":0},{"dx":-11,"dy":-2},{"dx":-6,"dy":-2},{"dx":-5,"dy":-2},{"dx":-5,"dy":-4},{"dx":-5,"dy":-4},{"dx":-4,"dy":-6},{"dx":-6,"dy":-13},{"dx":-3,"dy":-7},{"dx":-2,"dy":-7},{"dx":-3,"dy":-7},{"dx":-1,"dy":-7},{"dx":-1,"dy":-8},{"dx":2,"dy":-15},{"dx":3,"dy":-11},{"dx":5,"dy":-9},{"dx":9,"dy":-16},{"dx":3,"dy":-6},{"dx":5,"dy":-7},{"dx":8,"dy":-10},{"dx":6,"dy":-5},{"dx":8,"dy":-5},{"dx":12,"dy":-9},{"dx":11,"dy":-7},{"dx":14,"dy":-5},{"dx":12,"dy":-3},{"dx":8,"dy":-1},{"dx":4,"dy":0},{"dx":11,"dy":2},{"dx":7,"dy":2},{"dx":10,"dy":3},{"dx":14,"dy":6},{"dx":9,"dy":4},{"dx":6,"dy":3},{"dx":4,"dy":2},{"dx":3,"dy":4},{"dx":0,"dy":0},{"dx":3,"dy":4},{"dx":0,"dy":1},{"dx":1,"dy":5},{"dx":0,"dy":6},{"dx":-1,"dy":7},{"dx":0,"dy":5},{"dx":0,"dy":6},{"dx":0,"dy":5},{"dx":-2,"dy":6},{"dx":-2,"dy":6},{"dx":-4,"dy":6},{"dx":-3,"dy":5},{"dx":-4,"dy":4},{"dx":-6,"dy":4},{"dx":-4,"dy":3},{"dx":-6,"dy":3},{"dx":-11,"dy":4},{"dx":-3,"dy":2},{"dx":-6,"dy":0},{"dx":-7,"dy":0},{"dx":-5,"dy":-1},{"dx":-6,"dy":-1},{"dx":-10,"dy":-6},{"dx":-5,"dy":-4},{"dx":-7,"dy":-4},{"dx":-6,"dy":-4},{"dx":-4,"dy":-5},{"dx":-4,"dy":-6},{"dx":-1,"dy":-13},{"dx":0,"dy":-8},{"dx":1,"dy":-10},{"dx":7,"dy":-17},{"dx":6,"dy":-12},{"dx":9,"dy":-13},{"dx":16,"dy":-17},{"dx":10,"dy":-9},{"dx":8,"dy":-8},{"dx":13,"dy":-9},{"dx":8,"dy":-6},{"dx":4,"dy":-3},{"dx":11,"dy":-8},{"dx":7,"dy":-3},{"dx":7,"dy":-2},{"dx":8,"dy":-2},{"dx":6,"dy":0},{"dx":4,"dy":0},{"dx":8,"dy":4},{"dx":6,"dy":1},{"dx":8,"dy":4},{"dx":15,"dy":6},{"dx":6,"dy":4},{"dx":5,"dy":3},{"dx":7,"dy":5},{"dx":5,"dy":3},{"dx":4,"dy":4},{"dx":10,"dy":8},{"dx":3,"dy":4},{"dx":3,"dy":4},{"dx":2,"dy":5},{"dx":2,"dy":6},{"dx":1,"dy":5},{"dx":0,"dy":12},{"dx":-5,"dy":10},{"dx":-8,"dy":12},{"dx":-18,"dy":19},{"dx":-11,"dy":14},{"dx":-10,"dy":12},{"dx":-9,"dy":9},{"dx":-4,"dy":4},{"dx":-5,"dy":4},{"dx":-12,"dy":6},{"dx":-9,"dy":3},{"dx":-8,"dy":3},{"dx":-7,"dy":2},{"dx":-5,"dy":2},{"dx":-6,"dy":1},{"dx":-11,"dy":2},{"dx":-5,"dy":0},{"dx":-7,"dy":0},{"dx":-11,"dy":-5},{"dx":-12,"dy":-3},{"dx":-11,"dy":-2},{"dx":-11,"dy":-4},{"dx":-19,"dy":-7},{"dx":-12,"dy":-6},{"dx":-11,"dy":-6},{"dx":-14,"dy":-10},{"dx":-8,"dy":-6},{"dx":-6,"dy":-5},{"dx":-5,"dy":-5},{"dx":-3,"dy":-5},{"dx":-3,"dy":-6},{"dx":-3,"dy":-10},{"dx":0,"dy":-7},{"dx":2,"dy":-6},{"dx":2,"dy":-7},{"dx":7,"dy":-10},{"dx":12,"dy":-14},{"dx":10,"dy":-7},{"dx":11,"dy":-8},{"dx":14,"dy":-10},{"dx":5,"dy":-3},{"dx":13,"dy":-5},{"dx":9,"dy":-3},{"dx":12,"dy":-2},{"dx":5,"dy":0},{"dx":5,"dy":0},{"dx":13,"dy":1},{"dx":9,"dy":1},{"dx":15,"dy":4},{"dx":14,"dy":4},{"dx":14,"dy":4},{"dx":20,"dy":10},{"dx":16,"dy":7},{"dx":14,"dy":7},{"dx":9,"dy":8},{"dx":12,"dy":12},{"dx":4,"dy":7},{"dx":4,"dy":12},{"dx":5,"dy":17},{"dx":1,"dy":12},{"dx":0,"dy":11},{"dx":-3,"dy":17},{"dx":-3,"dy":6},{"dx":-3,"dy":8},{"dx":-3,"dy":6},{"dx":-7,"dy":9},{"dx":-9,"dy":9},{"dx":-16,"dy":13},{"dx":-10,"dy":8},{"dx":-8,"dy":8},{"dx":-14,"dy":7},{"dx":-5,"dy":3},{"dx":-7,"dy":3},{"dx":-20,"dy":4},{"dx":-14,"dy":1},{"dx":-14,"dy":1},{"dx":-28,"dy":-4},{"dx":-15,"dy":-4},{"dx":-15,"dy":-5},{"dx":-20,"dy":-8},{"dx":-14,"dy":-5},{"dx":-14,"dy":-7},{"dx":-20,"dy":-9},{"dx":-10,"dy":-7},{"dx":-9,"dy":-5},{"dx":-14,"dy":-9},{"dx":-8,"dy":-6},{"dx":-5,"dy":-5},{"dx":-10,"dy":-14},{"dx":-4,"dy":-6},{"dx":-1,"dy":-8},{"dx":0,"dy":-11},{"dx":2,"dy":-10},{"dx":1,"dy":-11},{"dx":1,"dy":-12},{"dx":1,"dy":-6},{"dx":1,"dy":-5},{"dx":5,"dy":-14},{"dx":6,"dy":-11},{"dx":8,"dy":-9},{"dx":8,"dy":-11},{"dx":5,"dy":-5},{"dx":5,"dy":-3},{"dx":15,"dy":-6},{"dx":8,"dy":-4},{"dx":8,"dy":-2},{"dx":7,"dy":-2},{"dx":5,"dy":0},{"dx":5,"dy":2},{"dx":8,"dy":8},{"dx":5,"dy":5},{"dx":3,"dy":4},{"dx":1,"dy":7},{"dx":-1,"dy":12},{"dx":-4,"dy":12},{"dx":-9,"dy":17},{"dx":-4,"dy":11},{"dx":-2,"dy":7},{"dx":-2,"dy":15},{"dx":-3,"dy":15},{"dx":-2,"dy":13},{"dx":-2,"dy":16},{"dx":0,"dy":9},{"dx":0,"dy":8},{"dx":0,"dy":5},{"dx":0,"dy":5},{"dx":2,"dy":6},{"dx":3,"dy":9},{"dx":3,"dy":6},{"dx":4,"dy":5},{"dx":4,"dy":5},{"dx":4,"dy":4},{"dx":3,"dy":4},{"dx":11,"dy":7},{"dx":8,"dy":2},{"dx":5,"dy":2},{"dx":6,"dy":2},{"dx":9,"dy":1},{"dx":5,"dy":0},{"dx":5,"dy":0},{"dx":4,"dy":-1},{"dx":5,"dy":-2},{"dx":4,"dy":-1},{"dx":8,"dy":-4},{"dx":3,"dy":-2},{"dx":4,"dy":-3},{"dx":5,"dy":-3},{"dx":3,"dy":-3},{"dx":5,"dy":-6},{"dx":2,"dy":-4},{"dx":3,"dy":-5},{"dx":2,"dy":-6},{"dx":5,"dy":-9},{"dx":2,"dy":-6},{"dx":2,"dy":-6},{"dx":3,"dy":-10},{"dx":2,"dy":-7},{"dx":3,"dy":-6},{"dx":8,"dy":-14},{"dx":4,"dy":-6},{"dx":3,"dy":-6},{"dx":2,"dy":-8},{"dx":2,"dy":-6},{"dx":0,"dy":-6},{"dx":0,"dy":-10},{"dx":0,"dy":-1},{"dx":-2,"dy":-7},{"dx":-3,"dy":-6},{"dx":-2,"dy":-4},{"dx":-3,"dy":-5},{"dx":-4,"dy":-8},{"dx":-3,"dy":-4},{"dx":-3,"dy":-4},{"dx":-4,"dy":-4},{"dx":0,"dy":-1},{"dx":-4,"dy":-2},{"dx":-2,"dy":0},{"dx":-5,"dy":-1},{"dx":-4,"dy":0},{"dx":-7,"dy":0},{"dx":-4,"dy":2},{"dx":-1,"dy":0},{"dx":-4,"dy":5},{"dx":0,"dy":0},{"dx":0,"dy":2},{"dx":-1,"dy":6},{"dx":0,"dy":6},{"dx":0,"dy":6},{"dx":0,"dy":11},{"dx":0,"dy":4},{"dx":0,"dy":5},{"dx":0,"dy":6},{"dx":0,"dy":6},{"dx":0,"dy":6},{"dx":-1,"dy":5},{"dx":0,"dy":1}],"trial_type":"plugin-moving-dots-2","trial_index":8,"plugin_version":"0.0.1","time_elapsed":42684},{"task":"fixation","rt":1623,"stimulus":"<div style=\"font-size:60px;\">+</div>","response":" ","trial_type":"html-keyboard-response","trial_index":9,"plugin_version":"2.1.0","time_elapsed":44309},{"task":"movingdots","control_change":0,"mouse_data":[{"dx":0,"dy":0},{"dx":0,"dy":0},{"dx":0,"dy":0},{"dx":0,"dy":0},{"dx":0,"dy":0},{"dx":0,"dy":0},{"dx":0,"dy":0},{"dx":0,"dy":0},{"dx":0,"dy":0},{"dx":0,"dy":0},{"dx":0,"dy":0},{"dx":0,"dy":0},{"dx":0,"dy":0},{"dx":0,"dy":0},{"dx":0,"dy":0},{"dx":0,"dy":0},{"dx":0,"dy":0},{"dx":1,"dy":2},{"dx":4,"dy":4},{"dx":12,"dy":9},{"dx":7,"dy":5},{"dx":12,"dy":7},{"dx":7,"dy":5},{"dx":8,"dy":5},{"dx":10,"dy":4},{"dx":7,"dy":4},{"dx":6,"dy":3},{"dx":6,"dy":3},{"dx":9,"dy":4},{"dx":6,"dy":1},{"dx":8,"dy":1},{"dx":6,"dy":0},{"dx":5,"dy":0},{"dx":4,"dy":-1},{"dx":7,"dy":-2},{"dx":4,"dy":-1},{"dx":6,"dy":-2},{"dx":10,"dy":-5},{"dx":6,"dy":-5},{"dx":5,"dy":-5},{"dx":4,"dy":-5},{"dx":3,"dy":-5},{"dx":3,"dy":-4},{"dx":3,"dy":-9},{"dx":0,"dy":0},{"dx":2,"dy":-6},{"dx":1,"dy":-10},{"dx":0,"dy":-6},{"dx":0,"dy":-9},{"dx":-1,"dy":-6},{"dx":-1,"dy":-7},{"dx":-2,"dy":-6},{"dx":-3,"dy":-11},{"dx":-1,"dy":-5},{"dx":-2,"dy":-6},{"dx":-2,"dy":-4},{"dx":-3,"dy":-4},{"dx":-3,"dy":-4},{"dx":-7,"dy":-7},{"dx":-5,"dy":-4},{"dx":-5,"dy":-3},{"dx":-5,"dy":-3},{"dx":-3,"dy":-2},{"dx":-5,"dy":-1},{"dx":-12,"dy":-1},{"dx":-6,"dy":0},{"dx":-5,"dy":0},{"dx":-5,"dy":2},{"dx":-5,"dy":3},{"dx":-5,"dy":3},{"dx":-4,"dy":3},{"dx":-3,"dy":3},{"dx":-4,"dy":3},{"dx":-5,"dy":8},{"dx":-3,"dy":3},{"dx":-3,"dy":4},{"dx":-3,"dy":5},{"dx":-3,"dy":6},{"dx":-3,"dy":5},{"dx":-6,"dy":10},{"dx":-4,"dy":5},{"dx":-4,"dy":5},{"dx":-3,"dy":5},{"dx":-3,"dy":4},{"dx":-3,"dy":5},{"dx":-6,"dy":8},{"dx":-4,"dy":3},{"dx":-3,"dy":3},{"dx":-4,"dy":4},{"dx":-3,"dy":4},{"dx":-4,"dy":3},{"dx":-8,"dy":6},{"dx":-5,"dy":3},{"dx":-3,"dy":3},{"dx":-4,"dy":2},{"dx":-5,"dy":2},{"dx":-4,"dy":1},{"dx":-8,"dy":3},{"dx":-6,"dy":1},{"dx":-5,"dy":1},{"dx":-6,"dy":1},{"dx":-5,"dy":1},{"dx":-6,"dy":0},{"dx":-7,"dy":0},{"dx":-5,"dy":0},{"dx":-5,"dy":-1},{"dx":-7,"dy":-1},{"dx":-5,"dy":-2},{"dx":-6,"dy":-1},{"dx":-9,"dy":-4},{"dx":-4,"dy":-3},{"dx":-4,"dy":-3},{"dx":-3,"dy":-3},{"dx":-3,"dy":-4},{"dx":-2,"dy":-4},{"dx":-1,"dy":-6},{"dx":0,"dy":-7},{"dx":0,"dy":-6},{"dx":1,"dy":-7},{"dx":3,"dy":-13},{"dx":2,"dy":-6},{"dx":3,"dy":-7},{"dx":3,"dy":-5},{"dx":3,"dy":-8},{"dx":5,"dy":-7},{"dx":10,"dy":-15},{"dx":3,"dy":-5},{"dx":3,"dy":-6},{"dx":4,"dy":-4},{"dx":5,"dy":-6},{"dx":5,"dy":-5},{"dx":10,"dy":-7},{"dx":5,"dy":-4},{"dx":0,"dy":0},{"dx":4,"dy":-2},{"dx":5,"dy":-1},{"dx":1,"dy":0},{"dx":9,"dy":1},{"dx":4,"dy":2},{"dx":5,"dy":2},{"dx":4,"dy":3},{"dx":5,"dy":3},{"dx":3,"dy":3},{"dx":8,"dy":4},{"dx":4,"dy":3},{"dx":3,"dy":1},{"dx":5,"dy":3},{"dx":3,"dy":2},{"dx":0,"dy":0},{"dx":4,"dy":3},{"dx":4,"dy":1},{"dx":0,"dy":1},{"dx":5,"dy":2},{"dx":5,"dy":2},{"dx":6,"dy":2},{"dx":5,"dy":2},{"dx":4,"dy":0},{"dx":5,"dy":0},{"dx":4,"dy":0},{"dx":1,"dy":-2},{"dx":3,"dy":-3},{"dx":3,"dy":-5},{"dx":0,"dy":-1},{"dx":0,"dy":-2},{"dx":-2,"dy":-5},{"dx":-3,"dy":-5},{"dx":-4,"dy":-5},{"dx":-3,"dy":-4},{"dx":-4,"dy":-5},{"dx":-3,"dy":-3},{"dx":-3,"dy":-5},{"dx":-1,"dy":0},{"dx":-4,"dy":-4},{"dx":-6,"dy":-2},{"dx":-7,"dy":-2},{"dx":0,"dy":-1},{"dx":-5,"dy":-1},{"dx":-4,"dy":-1},{"dx":-5,"dy":0},{"dx":-5,"dy":0},{"dx":-1,"dy":0},{"dx":-5,"dy":1},{"dx":-5,"dy":2},{"dx":-4,"dy":3},{"dx":-4,"dy":3},{"dx":-2,"dy":1},{"dx":0,"dy":0},{"dx":-1,"dy":2},{"dx":0,"dy":2},{"dx":0,"dy":4},{"dx":0,"dy":1},{"dx":3,"dy":4},{"dx":4,"dy":2},{"dx":5,"dy":1},{"dx":6,"dy":0},{"dx":0,"dy":0},{"dx":5,"dy":0},{"dx":5,"dy":2},{"dx":0,"dy":0},{"dx":1,"dy":1},{"dx":3,"dy":4},{"dx":0,"dy":1},{"dx":0,"dy":5},{"dx":0,"dy":2},{"dx":-1,"dy":5},{"dx":-2,"dy":4},{"dx":0,"dy":1},{"dx":-2,"dy":5},{"dx":0,"dy":1},{"dx":-1,"dy":5},{"dx":0,"dy":1},{"dx":0,"dy":1},{"dx":0,"dy":7},{"dx":2,"dy":4},{"dx":0,"dy":1},{"dx":4,"dy":5},{"dx":3,"dy":4},{"dx":3,"dy":2},{"dx":1,"dy":2},{"dx":2,"dy":3},{"dx":1,"dy":1},{"dx":4,"dy":4},{"dx":2,"dy":3},{"dx":3,"dy":6},{"dx":3,"dy":6},{"dx":3,"dy":4},{"dx":2,"dy":4},{"dx":1,"dy":4},{"dx":2,"dy":5},{"dx":1,"dy":4},{"dx":2,"dy":8},{"dx":2,"dy":8},{"dx":0,"dy":1},{"dx":1,"dy":6},{"dx":1,"dy":5},{"dx":0,"dy":4},{"dx":0,"dy":2},{"dx":-1,"dy":5},{"dx":-1,"dy":6},{"dx":-2,"dy":5},{"dx":0,"dy":0},{"dx":-2,"dy":5},{"dx":-1,"dy":5},{"dx":-3,"dy":6},{"dx":-1,"dy":0},{"dx":-6,"dy":9},{"dx":-2,"dy":5},{"dx":-3,"dy":4},{"dx":-5,"dy":5},{"dx":0,"dy":1},{"dx":-2,"dy":3},{"dx":-4,"dy":4},{"dx":-3,"dy":3},{"dx":-1,"dy":0},{"dx":-4,"dy":3},{"dx":-5,"dy":2},{"dx":-4,"dy":3},{"dx":-4,"dy":2},{"dx":-5,"dy":1},{"dx":0,"dy":0},{"dx":-4,"dy":2},{"dx":-6,"dy":1},{"dx":-1,"dy":0},{"dx":-3,"dy":1},{"dx":-5,"dy":0},{"dx":-6,"dy":0},{"dx":0,"dy":0},{"dx":-6,"dy":0},{"dx":-4,"dy":0},{"dx":-4,"dy":-1},{"dx":-1,"dy":0},{"dx":-5,"dy":-1},{"dx":-1,"dy":0},{"dx":-2,"dy":-1},{"dx":-4,"dy":-1},{"dx":-5,"dy":-3},{"dx":-6,"dy":-3},{"dx":-6,"dy":-3},{"dx":-5,"dy":-4},{"dx":-7,"dy":-5},{"dx":-6,"dy":-6},{"dx":-5,"dy":-5},{"dx":-10,"dy":-7},{"dx":-6,"dy":-3},{"dx":-4,"dy":-4},{"dx":-5,"dy":-3},{"dx":-5,"dy":-5},{"dx":-4,"dy":-4},{"dx":-7,"dy":-7},{"dx":-3,"dy":-4},{"dx":-4,"dy":-3},{"dx":-3,"dy":-4},{"dx":-5,"dy":-4},{"dx":0,"dy":-1},{"dx":-4,"dy":-5},{"dx":-3,"dy":-5},{"dx":-3,"dy":-7},{"dx":-1,"dy":-4},{"dx":-1,"dy":-5},{"dx":-1,"dy":-7},{"dx":-1,"dy":-6},{"dx":-1,"dy":-6},{"dx":0,"dy":-6},{"dx":0,"dy":-7},{"dx":0,"dy":-4},{"dx":0,"dy":-5},{"dx":0,"dy":-7},{"dx":0,"dy":-5},{"dx":1,"dy":-6},{"dx":3,"dy":-6},{"dx":2,"dy":-6},{"dx":2,"dy":-5},{"dx":3,"dy":-5},{"dx":1,"dy":-3},{"dx":2,"dy":-5},{"dx":2,"dy":-5},{"dx":3,"dy":-5},{"dx":1,"dy":-4},{"dx":0,"dy":-2},{"dx":0,"dy":-2},{"dx":-1,"dy":-5},{"dx":-1,"dy":-2},{"dx":-3,"dy":-2},{"dx":-5,"dy":-4},{"dx":-5,"dy":-2},{"dx":-4,"dy":-1},{"dx":-4,"dy":-1},{"dx":-5,"dy":-3},{"dx":-4,"dy":-2},{"dx":-5,"dy":-2},{"dx":-1,"dy":0},{"dx":-5,"dy":-3},{"dx":-1,"dy":0},{"dx":-1,"dy":0},{"dx":-5,"dy":-1},{"dx":-4,"dy":0},{"dx":-1,"dy":1},{"dx":-9,"dy":5},{"dx":0,"dy":0},{"dx":-3,"dy":4},{"dx":-4,"dy":3},{"dx":-2,"dy":4},{"dx":-1,"dy":0},{"dx":-4,"dy":5},{"dx":-3,"dy":4},{"dx":-3,"dy":5},{"dx":-6,"dy":7},{"dx":-2,"dy":4},{"dx":-2,"dy":4},{"dx":-2,"dy":4},{"dx":-2,"dy":5},{"dx":-2,"dy":4},{"dx":-4,"dy":11},{"dx":-1,"dy":4},{"dx":-1,"dy":4},{"dx":-3,"dy":7},{"dx":-2,"dy":5},{"dx":-3,"dy":5},{"dx":-5,"dy":8},{"dx":-3,"dy":4},{"dx":-4,"dy":4},{"dx":-3,"dy":5},{"dx":-3,"dy":2},{"dx":-4,"dy":5},{"dx":-1,"dy":0},{"dx":-2,"dy":3},{"dx":-2,"dy":0},{"dx":-4,"dy":1},{"dx":-1,"dy":0},{"dx":-5,"dy":-1},{"dx":-1,"dy":-1},{"dx":-3,"dy":-4},{"dx":-3,"dy":-5},{"dx":-1,"dy":-6},{"dx":0,"dy":-5},{"dx":-1,"dy":-5},{"dx":0,"dy":-6},{"dx":0,"dy":-7},{"dx":0,"dy":0},{"dx":0,"dy":-12},{"dx":0,"dy":0},{"dx":0,"dy":-6},{"dx":0,"dy":-5},{"dx":1,"dy":-6},{"dx":1,"dy":0},{"dx":3,"dy":-10},{"dx":2,"dy":-4},{"dx":2,"dy":-4},{"dx":2,"dy":-5},{"dx":3,"dy":-4},{"dx":3,"dy":-5},{"dx":12,"dy":-10},{"dx":7,"dy":-7},{"dx":5,"dy":-4},{"dx":5,"dy":-6},{"dx":4,"dy":-4},{"dx":3,"dy":-4},{"dx":8,"dy":-7},{"dx":6,"dy":-4},{"dx":6,"dy":-4},{"dx":6,"dy":-5},{"dx":5,"dy":-2},{"dx":5,"dy":-3},{"dx":9,"dy":-3},{"dx":5,"dy":-2},{"dx":7,"dy":-2},{"dx":7,"dy":-1},{"dx":7,"dy":-3},{"dx":9,"dy":-2},{"dx":14,"dy":-1},{"dx":7,"dy":0},{"dx":7,"dy":0},{"dx":6,"dy":0},{"dx":5,"dy":0},{"dx":6,"dy":0},{"dx":15,"dy":0},{"dx":6,"dy":1},{"dx":5,"dy":2},{"dx":7,"dy":3},{"dx":8,"dy":3},{"dx":7,"dy":2},{"dx":12,"dy":4},{"dx":4,"dy":2},{"dx":3,"dy":2},{"dx":4,"dy":3},{"dx":4,"dy":2},{"dx":5,"dy":3},{"dx":8,"dy":7},{"dx":4,"dy":5},{"dx":3,"dy":5},{"dx":3,"dy":6},{"dx":2,"dy":6},{"dx":2,"dy":6},{"dx":1,"dy":6},{"dx":1,"dy":12},{"dx":1,"dy":6},{"dx":0,"dy":5},{"dx":1,"dy":7},{"dx":0,"dy":6},{"dx":2,"dy":4},{"dx":3,"dy":6},{"dx":2,"dy":4},{"dx":4,"dy":5},{"dx":6,"dy":9},{"dx":4,"dy":4},{"dx":3,"dy":3},{"dx":3,"dy":5},{"dx":3,"dy":4},{"dx":2,"dy":3},{"dx":8,"dy":7},{"dx":5,"dy":2},{"dx":4,"dy":2},{"dx":6,"dy":3}],"trial_type":"plugin-moving-dots-2","trial_index":10,"plugin_version":"0.0.1","time_elapsed":51818},{"task":"fixation","rt":1226,"stimulus":"<div style=\"font-size:60px;\">+</div>","response":" ","trial_type":"html-keyboard-response","trial_index":11,"plugin_version":"2.1.0","time_elapsed":53045},{"task":"movingdots","control_change":0,"mouse_data":[{"dx":0,"dy":0},{"dx":0,"dy":0},{"dx":0,"dy":1},{"dx":0,"dy":1},{"dx":0,"dy":0},{"dx":0,"dy":1},{"dx":0,"dy":0},{"dx":0,"dy":0},{"dx":1,"dy":1},{"dx":0,"dy":1},{"dx":1,"dy":1},{"dx":4,"dy":3},{"dx":0,"dy":0},{"dx":5,"dy":3},{"dx":1,"dy":0},{"dx":4,"dy":1},{"dx":5,"dy":1},{"dx":5,"dy":1},{"dx":5,"dy":1},{"dx":4,"dy":1},{"dx":6,"dy":2},{"dx":0,"dy":0},{"dx":5,"dy":1},{"dx":6,"dy":1},{"dx":4,"dy":1},{"dx":6,"dy":1},{"dx":9,"dy":0},{"dx":5,"dy":0},{"dx":4,"dy":0},{"dx":5,"dy":-1},{"dx":6,"dy":-1},{"dx":4,"dy":-3},{"dx":5,"dy":-2},{"dx":6,"dy":-2},{"dx":0,"dy":-1},{"dx":4,"dy":-2},{"dx":4,"dy":-4},{"dx":3,"dy":-4},{"dx":4,"dy":-5},{"dx":4,"dy":-5},{"dx":4,"dy":-4},{"dx":3,"dy":-3},{"dx":3,"dy":-4},{"dx":4,"dy":-5},{"dx":3,"dy":-5},{"dx":3,"dy":-3},{"dx":3,"dy":-4},{"dx":3,"dy":-5},{"dx":2,"dy":-5},{"dx":1,"dy":-5},{"dx":2,"dy":-11},{"dx":1,"dy":-8},{"dx":0,"dy":-11},{"dx":-3,"dy":-15},{"dx":-2,"dy":-7},{"dx":-3,"dy":-7},{"dx":-2,"dy":-7},{"dx":-3,"dy":-6},{"dx":-4,"dy":-9},{"dx":-6,"dy":-12},{"dx":-5,"dy":-6},{"dx":-5,"dy":-4},{"dx":-6,"dy":-5},{"dx":-7,"dy":-4},{"dx":-8,"dy":-5},{"dx":-13,"dy":-6},{"dx":-8,"dy":-4},{"dx":-7,"dy":-2},{"dx":-6,"dy":-1},{"dx":-7,"dy":0},{"dx":-8,"dy":0},{"dx":-13,"dy":1},{"dx":-6,"dy":0},{"dx":-5,"dy":1},{"dx":-6,"dy":1},{"dx":-7,"dy":1},{"dx":-6,"dy":1},{"dx":-5,"dy":2},{"dx":-14,"dy":5},{"dx":0,"dy":0},{"dx":-1,"dy":1},{"dx":-3,"dy":3},{"dx":0,"dy":1},{"dx":-2,"dy":4},{"dx":-2,"dy":5},{"dx":0,"dy":0},{"dx":-1,"dy":2},{"dx":0,"dy":2},{"dx":0,"dy":1},{"dx":1,"dy":6},{"dx":0,"dy":0},{"dx":3,"dy":5},{"dx":2,"dy":4},{"dx":5,"dy":3},{"dx":4,"dy":3},{"dx":1,"dy":0},{"dx":3,"dy":3},{"dx":3,"dy":3},{"dx":3,"dy":4},{"dx":4,"dy":3},{"dx":1,"dy":1},{"dx":4,"dy":4},{"dx":3,"dy":2},{"dx":5,"dy":5},{"dx":4,"dy":4},{"dx":4,"dy":3},{"dx":6,"dy":4},{"dx":3,"dy":3},{"dx":8,"dy":6},{"dx":0,"dy":1},{"dx":5,"dy":4},{"dx":4,"dy":3},{"dx":4,"dy":5},{"dx":1,"dy":1},{"dx":3,"dy":5},{"dx":2,"dy":4},{"dx":3,"dy":5},{"dx":2,"dy":4},{"dx":0,"dy":1},{"dx":2,"dy":6},{"dx":3,"dy":7},{"dx":1,"dy":6},{"dx":0,"dy":5},{"dx":0,"dy":10},{"dx":0,"dy":6},{"dx":0,"dy":4},{"dx":-2,"dy":8},{"dx":0,"dy":2},{"dx":-2,"dy":7},{"dx":-3,"dy":10},{"dx":-1,"dy":4},{"dx":-1,"dy":5},{"dx":-2,"dy":3},{"dx":-3,"dy":5},{"dx":-3,"dy":4},{"dx":-5,"dy":6},{"dx":-3,"dy":5},{"dx":-3,"dy":3},{"dx":-7,"dy":7},{"dx":-4,"dy":4},{"dx":-3,"dy":4},{"dx":-5,"dy":4},{"dx":-2,"dy":2},{"dx":-3,"dy":3},{"dx":-7,"dy":5},{"dx":-3,"dy":3},{"dx":-4,"dy":3},{"dx":-5,"dy":4},{"dx":-4,"dy":2},{"dx":-3,"dy":2},{"dx":-7,"dy":5},{"dx":-3,"dy":3},{"dx":-4,"dy":2},{"dx":-4,"dy":2},{"dx":-4,"dy":3},{"dx":-4,"dy":2},{"dx":-8,"dy":3},{"dx":-4,"dy":0},{"dx":-4,"dy":1},{"dx":-5,"dy":2},{"dx":-6,"dy":1},{"dx":-6,"dy":1},{"dx":-5,"dy":1},{"dx":-4,"dy":0},{"dx":-6,"dy":1},{"dx":-4,"dy":0},{"dx":-6,"dy":1},{"dx":-5,"dy":0},{"dx":-4,"dy":0},{"dx":-7,"dy":0},{"dx":-4,"dy":0},{"dx":-5,"dy":0},{"dx":-5,"dy":-1},{"dx":-1,"dy":-1},{"dx":-5,"dy":-1},{"dx":-3,"dy":-2},{"dx":-5,"dy":-2},{"dx":-4,"dy":-3},{"dx":0,"dy":0},{"dx":-4,"dy":-3},{"dx":-4,"dy":-3},{"dx":-4,"dy":-3},{"dx":-4,"dy":-4},{"dx":-5,"dy":-4},{"dx":-5,"dy":-4},{"dx":-5,"dy":-4},{"dx":-5,"dy":-5},{"dx":0,"dy":0},{"dx":-4,"dy":-3},{"dx":-4,"dy":-5},{"dx":-4,"dy":-5},{"dx":-2,"dy":-5},{"dx":-2,"dy":-5},{"dx":-2,"dy":-5},{"dx":-1,"dy":-6},{"dx":0,"dy":-1},{"dx":-1,"dy":-11},{"dx":1,"dy":-5},{"dx":1,"dy":-8},{"dx":3,"dy":-8},{"dx":2,"dy":-5},{"dx":2,"dy":-6},{"dx":2,"dy":-9},{"dx":1,"dy":-6},{"dx":2,"dy":-6},{"dx":2,"dy":-6},{"dx":1,"dy":-6},{"dx":2,"dy":-6},{"dx":2,"dy":-5},{"dx":1,"dy":-4},{"dx":2,"dy":-6},{"dx":4,"dy":-10},{"dx":3,"dy":-5},{"dx":2,"dy":-4},{"dx":3,"dy":-6},{"dx":2,"dy":-4},{"dx":3,"dy":-4},{"dx":8,"dy":-7},{"dx":5,"dy":-4},{"dx":3,"dy":-3},{"dx":4,"dy":-3},{"dx":4,"dy":-3},{"dx":4,"dy":-2},{"dx":9,"dy":-3},{"dx":4,"dy":-1},{"dx":5,"dy":0},{"dx":4,"dy":0},{"dx":5,"dy":1},{"dx":5,"dy":2},{"dx":12,"dy":5},{"dx":5,"dy":2},{"dx":4,"dy":2},{"dx":4,"dy":4},{"dx":4,"dy":3},{"dx":3,"dy":3},{"dx":7,"dy":6},{"dx":4,"dy":5},{"dx":4,"dy":5},{"dx":3,"dy":4},{"dx":3,"dy":5},{"dx":2,"dy":4},{"dx":5,"dy":8},{"dx":3,"dy":5},{"dx":2,"dy":7},{"dx":2,"dy":8},{"dx":2,"dy":6},{"dx":1,"dy":7},{"dx":5,"dy":11},{"dx":2,"dy":8},{"dx":2,"dy":9},{"dx":6,"dy":14},{"dx":5,"dy":13},{"dx":3,"dy":12},{"dx":4,"dy":16},{"dx":4,"dy":9},{"dx":4,"dy":8},{"dx":6,"dy":15},{"dx":5,"dy":11},{"dx":5,"dy":11},{"dx":7,"dy":18},{"dx":6,"dy":9},{"dx":6,"dy":8},{"dx":10,"dy":8},{"dx":8,"dy":4},{"dx":10,"dy":4},{"dx":10,"dy":2},{"dx":12,"dy":3},{"dx":10,"dy":2},{"dx":17,"dy":1},{"dx":5,"dy":0},{"dx":7,"dy":-1},{"dx":14,"dy":-3},{"dx":9,"dy":-3},{"dx":8,"dy":-6},{"dx":11,"dy":-12},{"dx":7,"dy":-8},{"dx":6,"dy":-11},{"dx":11,"dy":-16},{"dx":8,"dy":-10},{"dx":7,"dy":-9},{"dx":10,"dy":-10},{"dx":6,"dy":-8},{"dx":6,"dy":-10},{"dx":8,"dy":-14},{"dx":4,"dy":-6},{"dx":5,"dy":-7},{"dx":8,"dy":-15},{"dx":3,"dy":-10},{"dx":4,"dy":-8},{"dx":3,"dy":-7},{"dx":1,"dy":-7},{"dx":1,"dy":-6},{"dx":0,"dy":-16},{"dx":-4,"dy":-7},{"dx":-4,"dy":-10},{"dx":-7,"dy":-12},{"dx":-4,"dy":-8},{"dx":-6,"dy":-10},{"dx":-3,"dy":-4},{"dx":-12,"dy":-12},{"dx":-8,"dy":-5},{"dx":-13,"dy":-9},{"dx":-9,"dy":-5},{"dx":-8,"dy":-6},{"dx":-6,"dy":-5},{"dx":-11,"dy":-8},{"dx":-7,"dy":-4},{"dx":-6,"dy":-4},{"dx":-5,"dy":-4},{"dx":-4,"dy":-3},{"dx":-9,"dy":-5},{"dx":-5,"dy":-3},{"dx":-6,"dy":-3},{"dx":-6,"dy":-2},{"dx":-5,"dy":-2},{"dx":-6,"dy":-1},{"dx":-9,"dy":-3},{"dx":-3,"dy":-1},{"dx":-1,"dy":-1},{"dx":-6,"dy":-1},{"dx":-5,"dy":-2},{"dx":0,"dy":0},{"dx":-5,"dy":-3},{"dx":-1,"dy":0},{"dx":-2,"dy":-4},{"dx":-3,"dy":-4},{"dx":-3,"dy":-6},{"dx":0,"dy":-1},{"dx":-1,"dy":-4},{"dx":-1,"dy":-6},{"dx":0,"dy":-7},{"dx":0,"dy":-5},{"dx":0,"dy":-11},{"dx":1,"dy":-6},{"dx":0,"dy":0},{"dx":3,"dy":-6},{"dx":0,"dy":-1},{"dx":4,"dy":-3},{"dx":4,"dy":-2},{"dx":4,"dy":-1},{"dx":1,"dy":-1},{"dx":5,"dy":-3},{"dx":3,"dy":-1},{"dx":5,"dy":-3},{"dx":3,"dy":-4},{"dx":3,"dy":-1},{"dx":3,"dy":-4},{"dx":1,"dy":-2},{"dx":0,"dy":-1},{"dx":0,"dy":-5},{"dx":-5,"dy":-3},{"dx":-3,"dy":-2},{"dx":-4,"dy":-1},{"dx":-11,"dy":-3},{"dx":-6,"dy":-2},{"dx":-8,"dy":-1},{"dx":-12,"dy":0},{"dx":-4,"dy":0},{"dx":-8,"dy":0},{"dx":-11,"dy":0},{"dx":-4,"dy":0},{"dx":-5,"dy":0},{"dx":-5,"dy":0},{"dx":-4,"dy":0},{"dx":-6,"dy":0},{"dx":-12,"dy":1},{"dx":-5,"dy":1},{"dx":-7,"dy":1},{"dx":-6,"dy":1},{"dx":-4,"dy":1},{"dx":-4,"dy":1},{"dx":-8,"dy":4},{"dx":-4,"dy":2},{"dx":-3,"dy":3},{"dx":-5,"dy":1},{"dx":-3,"dy":2},{"dx":-4,"dy":3},{"dx":-4,"dy":5},{"dx":-3,"dy":3},{"dx":-1,"dy":0},{"dx":-3,"dy":3},{"dx":-5,"dy":4},{"dx":-3,"dy":3},{"dx":-5,"dy":4},{"dx":-1,"dy":1},{"dx":-3,"dy":4},{"dx":-3,"dy":4},{"dx":-3,"dy":5},{"dx":-3,"dy":4},{"dx":-3,"dy":5},{"dx":-3,"dy":4},{"dx":-2,"dy":4},{"dx":-2,"dy":3},{"dx":-6,"dy":10},{"dx":-1,"dy":4},{"dx":-2,"dy":5},{"dx":-2,"dy":6},{"dx":-1,"dy":5},{"dx":-2,"dy":6},{"dx":-1,"dy":6},{"dx":-1,"dy":7},{"dx":0,"dy":5},{"dx":0,"dy":10},{"dx":1,"dy":5},{"dx":1,"dy":7},{"dx":0,"dy":0},{"dx":2,"dy":5},{"dx":2,"dy":5},{"dx":4,"dy":4},{"dx":4,"dy":4},{"dx":4,"dy":4},{"dx":5,"dy":3},{"dx":4,"dy":2},{"dx":8,"dy":2},{"dx":6,"dy":1},{"dx":6,"dy":0},{"dx":7,"dy":1},{"dx":6,"dy":0},{"dx":5,"dy":0},{"dx":6,"dy":-1},{"dx":4,"dy":0},{"dx":6,"dy":-1},{"dx":6,"dy":0},{"dx":12,"dy":-1},{"dx":4,"dy":0},{"dx":5,"dy":1},{"dx":1,"dy":0},{"dx":3,"dy":2},{"dx":2,"dy":4},{"dx":2,"dy":5},{"dx":0,"dy":1},{"dx":2,"dy":12},{"dx":1,"dy":5},{"dx":0,"dy":4},{"dx":0,"dy":7},{"dx":0,"dy":6},{"dx":0,"dy":0},{"dx":0,"dy":5},{"dx":0,"dy":2},{"dx":0,"dy":4},{"dx":0,"dy":1},{"dx":-2,"dy":5},{"dx":-1,"dy":2},{"dx":-3,"dy":4},{"dx":-3,"dy":2},{"dx":-5,"dy":3},{"dx":-4,"dy":3},{"dx":-6,"dy":2},{"dx":-1,"dy":0},{"dx":-5,"dy":2},{"dx":-11,"dy":1}],"trial_type":"plugin-moving-dots-2","trial_index":12,"plugin_version":"0.0.1","time_elapsed":60550},{"task":"fixation","rt":1037,"stimulus":"<div style=\"font-size:60px;\">+</div>","response":" ","trial_type":"html-keyboard-response","trial_index":13,"plugin_version":"2.1.0","time_elapsed":61589},{"task":"movingdots","control_change":0,"mouse_data":[{"dx":0,"dy":0},{"dx":0,"dy":0},{"dx":0,"dy":0},{"dx":0,"dy":0},{"dx":0,"dy":0},{"dx":0,"dy":0},{"dx":0,"dy":0},{"dx":0,"dy":0},{"dx":0,"dy":0},{"dx":0,"dy":0},{"dx":0,"dy":0},{"dx":0,"dy":0},{"dx":0,"dy":0},{"dx":0,"dy":0},{"dx":2,"dy":5},{"dx":3,"dy":4},{"dx":0,"dy":1},{"dx":3,"dy":5},{"dx":3,"dy":4},{"dx":2,"dy":5},{"dx":3,"dy":3},{"dx":6,"dy":11},{"dx":4,"dy":6},{"dx":4,"dy":4},{"dx":4,"dy":5},{"dx":4,"dy":5},{"dx":2,"dy":4},{"dx":7,"dy":6},{"dx":3,"dy":3},{"dx":5,"dy":4},{"dx":5,"dy":4},{"dx":5,"dy":2},{"dx":4,"dy":2},{"dx":10,"dy":4},{"dx":3,"dy":1},{"dx":5,"dy":1},{"dx":9,"dy":-1},{"dx":7,"dy":0},{"dx":7,"dy":0},{"dx":10,"dy":-1},{"dx":8,"dy":-1},{"dx":11,"dy":-3},{"dx":9,"dy":-3},{"dx":9,"dy":-5},{"dx":7,"dy":-4},{"dx":14,"dy":-8},{"dx":8,"dy":-5},{"dx":6,"dy":-5},{"dx":8,"dy":-6},{"dx":11,"dy":-11},{"dx":7,"dy":-9},{"dx":4,"dy":-5},{"dx":10,"dy":-13},{"dx":4,"dy":-8},{"dx":2,"dy":-7},{"dx":2,"dy":-6},{"dx":2,"dy":-6},{"dx":2,"dy":-15},{"dx":1,"dy":-11},{"dx":1,"dy":-12},{"dx":1,"dy":-10},{"dx":1,"dy":-6},{"dx":0,"dy":-6},{"dx":0,"dy":-7},{"dx":-4,"dy":-18},{"dx":-3,"dy":-7},{"dx":-3,"dy":-7},{"dx":-5,"dy":-6},{"dx":-6,"dy":-8},{"dx":-10,"dy":-14},{"dx":-7,"dy":-11},{"dx":-3,"dy":-5},{"dx":-5,"dy":-4},{"dx":-11,"dy":-7},{"dx":-9,"dy":-6},{"dx":-5,"dy":-2},{"dx":-13,"dy":-9},{"dx":-8,"dy":-3},{"dx":-10,"dy":-2},{"dx":-16,"dy":-4},{"dx":-6,"dy":-1},{"dx":-7,"dy":-2},{"dx":-14,"dy":0},{"dx":-5,"dy":0},{"dx":-6,"dy":0},{"dx":-6,"dy":0},{"dx":-5,"dy":1},{"dx":-6,"dy":2},{"dx":-10,"dy":2},{"dx":-3,"dy":1},{"dx":-4,"dy":2},{"dx":-4,"dy":2},{"dx":-4,"dy":2},{"dx":-5,"dy":2},{"dx":-6,"dy":5},{"dx":-3,"dy":3},{"dx":-4,"dy":3},{"dx":-4,"dy":3},{"dx":-3,"dy":3},{"dx":-2,"dy":4},{"dx":-6,"dy":8},{"dx":-3,"dy":4},{"dx":-3,"dy":5},{"dx":-3,"dy":4},{"dx":-3,"dy":4},{"dx":-2,"dy":5},{"dx":-5,"dy":10},{"dx":0,"dy":1},{"dx":-2,"dy":6},{"dx":-2,"dy":6},{"dx":0,"dy":5},{"dx":0,"dy":1},{"dx":1,"dy":7},{"dx":3,"dy":5},{"dx":3,"dy":4},{"dx":7,"dy":7},{"dx":2,"dy":3},{"dx":4,"dy":5},{"dx":0,"dy":0},{"dx":4,"dy":4},{"dx":3,"dy":4},{"dx":3,"dy":3},{"dx":8,"dy":9},{"dx":3,"dy":3},{"dx":4,"dy":5},{"dx":4,"dy":4},{"dx":2,"dy":3},{"dx":4,"dy":3},{"dx":4,"dy":4},{"dx":3,"dy":3},{"dx":4,"dy":5},{"dx":3,"dy":4},{"dx":0,"dy":1},{"dx":2,"dy":3},{"dx":1,"dy":1},{"dx":1,"dy":5},{"dx":0,"dy":0},{"dx":1,"dy":2},{"dx":1,"dy":6},{"dx":0,"dy":0},{"dx":0,"dy":3},{"dx":0,"dy":4},{"dx":0,"dy":1},{"dx":0,"dy":5},{"dx":0,"dy":5},{"dx":0,"dy":1},{"dx":0,"dy":5},{"dx":0,"dy":1},{"dx":-1,"dy":5},{"dx":-2,"dy":6},{"dx":0,"dy":0},{"dx":-2,"dy":5},{"dx":-1,"dy":1},{"dx":-2,"dy":4},{"dx":0,"dy":0},{"dx":-3,"dy":5},{"dx":0,"dy":0},{"dx":-3,"dy":4},{"dx":-4,"dy":3},{"dx":-4,"dy":2},{"dx":0,"dy":1},{"dx":-9,"dy":4},{"dx":-4,"dy":1},{"dx":-4,"dy":2},{"dx":-5,"dy":2},{"dx":-4,"dy":2},{"dx":-1,"dy":0},{"dx":-10,"dy":3},{"dx":-1,"dy":0},{"dx":-5,"dy":2},{"dx":-5,"dy":1},{"dx":-6,"dy":2},{"dx":-1,"dy":0},{"dx":-10,"dy":2},{"dx":-4,"dy":0},{"dx":-4,"dy":0},{"dx":-5,"dy":0},{"dx":-6,"dy":0},{"dx":0,"dy":0},{"dx":-5,"dy":0},{"dx":-4,"dy":0},{"dx":-1,"dy":0},{"dx":-5,"dy":-2},{"dx":-4,"dy":-2},{"dx":-5,"dy":-2},{"dx":-5,"dy":-2},{"dx":-4,"dy":-2},{"dx":-6,"dy":-4},{"dx":-3,"dy":-3},{"dx":-5,"dy":-2},{"dx":-3,"dy":-4},{"dx":-4,"dy":-4},{"dx":-3,"dy":-4},{"dx":-3,"dy":-4},{"dx":-6,"dy":-8},{"dx":-1,"dy":-2},{"dx":-3,"dy":-5},{"dx":-2,"dy":-7},{"dx":-2,"dy":-6},{"dx":0,"dy":0},{"dx":-2,"dy":-6},{"dx":-2,"dy":-6},{"dx":-1,"dy":-7},{"dx":0,"dy":0},{"dx":-1,"dy":-6},{"dx":0,"dy":-5},{"dx":0,"dy":-8},{"dx":1,"dy":-4},{"dx":1,"dy":-5},{"dx":1,"dy":-4},{"dx":1,"dy":-6},{"dx":3,"dy":-5},{"dx":2,"dy":-5},{"dx":2,"dy":-4},{"dx":0,"dy":-1},{"dx":6,"dy":-9},{"dx":3,"dy":-5},{"dx":1,"dy":0},{"dx":4,"dy":-4},{"dx":3,"dy":-3},{"dx":4,"dy":-4},{"dx":8,"dy":-4},{"dx":4,"dy":-1},{"dx":0,"dy":-1},{"dx":4,"dy":-2},{"dx":10,"dy":-1},{"dx":5,"dy":-1},{"dx":5,"dy":0},{"dx":4,"dy":-1},{"dx":5,"dy":0},{"dx":5,"dy":0},{"dx":6,"dy":0},{"dx":0,"dy":0},{"dx":4,"dy":0},{"dx":7,"dy":1},{"dx":5,"dy":2},{"dx":5,"dy":1},{"dx":4,"dy":3},{"dx":1,"dy":0},{"dx":2,"dy":3},{"dx":3,"dy":4},{"dx":3,"dy":6},{"dx":0,"dy":0},{"dx":2,"dy":5},{"dx":3,"dy":4},{"dx":2,"dy":7},{"dx":2,"dy":6},{"dx":0,"dy":0},{"dx":1,"dy":4},{"dx":2,"dy":6},{"dx":2,"dy":6},{"dx":1,"dy":6},{"dx":0,"dy":5},{"dx":1,"dy":1},{"dx":1,"dy":6},{"dx":0,"dy":4},{"dx":1,"dy":6},{"dx":0,"dy":0},{"dx":2,"dy":7},{"dx":1,"dy":6},{"dx":1,"dy":7},{"dx":3,"dy":5},{"dx":2,"dy":5},{"dx":2,"dy":5},{"dx":1,"dy":5},{"dx":3,"dy":5},{"dx":2,"dy":6},{"dx":4,"dy":4},{"dx":4,"dy":3},{"dx":4,"dy":3},{"dx":4,"dy":2},{"dx":4,"dy":2},{"dx":6,"dy":2},{"dx":11,"dy":3},{"dx":5,"dy":2},{"dx":7,"dy":1},{"dx":6,"dy":1},{"dx":4,"dy":0},{"dx":5,"dy":0},{"dx":7,"dy":-1},{"dx":4,"dy":-3},{"dx":4,"dy":-2},{"dx":4,"dy":-2},{"dx":4,"dy":-4},{"dx":4,"dy":-3},{"dx":6,"dy":-5},{"dx":4,"dy":-4},{"dx":0,"dy":0},{"dx":5,"dy":-4},{"dx":4,"dy":-2},{"dx":3,"dy":-5},{"dx":7,"dy":-10},{"dx":3,"dy":-7},{"dx":5,"dy":-8},{"dx":3,"dy":-7},{"dx":3,"dy":-6},{"dx":2,"dy":-4},{"dx":1,"dy":-6},{"dx":0,"dy":-14},{"dx":0,"dy":-5},{"dx":0,"dy":-6},{"dx":-1,"dy":-6},{"dx":-2,"dy":-5},{"dx":-3,"dy":-7},{"dx":-2,"dy":-4},{"dx":-2,"dy":-4},{"dx":-3,"dy":-7},{"dx":-2,"dy":-5},{"dx":-3,"dy":-6},{"dx":-3,"dy":-4},{"dx":-3,"dy":-6},{"dx":-2,"dy":-3},{"dx":-3,"dy":-4},{"dx":-7,"dy":-7},{"dx":-5,"dy":-3},{"dx":-4,"dy":-4},{"dx":-6,"dy":-3},{"dx":-5,"dy":-2},{"dx":-8,"dy":-4},{"dx":-1,"dy":-1},{"dx":-5,"dy":-1},{"dx":-6,"dy":-1},{"dx":-8,"dy":-2},{"dx":-1,"dy":-1},{"dx":-6,"dy":-1},{"dx":-8,"dy":-1},{"dx":-5,"dy":0},{"dx":-4,"dy":0},{"dx":-6,"dy":0},{"dx":-1,"dy":0},{"dx":-4,"dy":2},{"dx":-3,"dy":3},{"dx":-5,"dy":4},{"dx":-7,"dy":8},{"dx":-3,"dy":5},{"dx":-3,"dy":5},{"dx":-1,"dy":5},{"dx":-4,"dy":6},{"dx":-3,"dy":5},{"dx":-2,"dy":5},{"dx":-2,"dy":6},{"dx":-2,"dy":6},{"dx":-2,"dy":5},{"dx":-5,"dy":8},{"dx":-1,"dy":4},{"dx":-3,"dy":3},{"dx":-2,"dy":4},{"dx":-3,"dy":5},{"dx":-2,"dy":4},{"dx":-4,"dy":5},{"dx":-4,"dy":4},{"dx":-3,"dy":3},{"dx":-7,"dy":6},{"dx":-5,"dy":4},{"dx":-1,"dy":0},{"dx":-6,"dy":4},{"dx":-5,"dy":3},{"dx":-4,"dy":1},{"dx":-8,"dy":4},{"dx":-5,"dy":3},{"dx":-5,"dy":2},{"dx":-6,"dy":2},{"dx":-6,"dy":1},{"dx":-4,"dy":1},{"dx":-9,"dy":0},{"dx":-5,"dy":0},{"dx":-5,"dy":0},{"dx":-7,"dy":-2},{"dx":-6,"dy":-2},{"dx":-4,"dy":-3},{"dx":-8,"dy":-5},{"dx":-3,"dy":-2},{"dx":-4,"dy":-4},{"dx":-4,"dy":-5},{"dx":0,"dy":0},{"dx":-2,"dy":-4},{"dx":-2,"dy":-6},{"dx":-1,"dy":-5},{"dx":0,"dy":-1},{"dx":0,"dy":-6},{"dx":0,"dy":-2},{"dx":1,"dy":-4},{"dx":2,"dy":-5},{"dx":2,"dy":-6},{"dx":3,"dy":-4},{"dx":4,"dy":-5},{"dx":4,"dy":-4},{"dx":4,"dy":-5},{"dx":7,"dy":-9},{"dx":4,"dy":-3},{"dx":4,"dy":-5},{"dx":3,"dy":-3},{"dx":5,"dy":-4},{"dx":4,"dy":-4},{"dx":5,"dy":-3},{"dx":1,"dy":0},{"dx":1,"dy":0},{"dx":4,"dy":-1},{"dx":1,"dy":0},{"dx":4,"dy":0},{"dx":5,"dy":1},{"dx":6,"dy":2},{"dx":5,"dy":1},{"dx":6,"dy":2},{"dx":5,"dy":1},{"dx":4,"dy":2},{"dx":9,"dy":2},{"dx":4,"dy":1},{"dx":4,"dy":1},{"dx":6,"dy":3},{"dx":5,"dy":3},{"dx":4,"dy":3},{"dx":3,"dy":3},{"dx":1,"dy":1},{"dx":4,"dy":4},{"dx":4,"dy":4},{"dx":4,"dy":3},{"dx":3,"dy":4},{"dx":4,"dy":4},{"dx":10,"dy":10},{"dx":6,"dy":5},{"dx":3,"dy":5},{"dx":4,"dy":6},{"dx":4,"dy":4},{"dx":3,"dy":3},{"dx":8,"dy":6},{"dx":4,"dy":2},{"dx":4,"dy":2},{"dx":6,"dy":2},{"dx":3,"dy":2},{"dx":4,"dy":2},{"dx":10,"dy":3},{"dx":4,"dy":1},{"dx":4,"dy":1},{"dx":5,"dy":1},{"dx":5,"dy":0},{"dx":5,"dy":0},{"dx":5,"dy":0},{"dx":5,"dy":0},{"dx":6,"dy":-1},{"dx":10,"dy":-2},{"dx":4,"dy":-2},{"dx":3,"dy":-3},{"dx":4,"dy":-5},{"dx":4,"dy":-6},{"dx":4,"dy":-6},{"dx":5,"dy":-10},{"dx":1,"dy":-5},{"dx":2,"dy":-5},{"dx":2,"dy":-6},{"dx":1,"dy":-6},{"dx":0,"dy":-7},{"dx":-1,"dy":-13}],"trial_type":"plugin-moving-dots-2","trial_index":14,"plugin_version":"0.0.1","time_elapsed":69103},{"task":"fixation","rt":1012,"stimulus":"<div style=\"font-size:60px;\">+</div>","response":" ","trial_type":"html-keyboard-response","trial_index":15,"plugin_version":"2.1.0","time_elapsed":70117},{"task":"movingdots","control_change":0,"mouse_data":[{"dx":0,"dy":0},{"dx":0,"dy":0},{"dx":0,"dy":0},{"dx":0,"dy":0},{"dx":0,"dy":0},{"dx":0,"dy":0},{"dx":0,"dy":0},{"dx":0,"dy":0},{"dx":0,"dy":0},{"dx":0,"dy":0},{"dx":0,"dy":0},{"dx":0,"dy":0},{"dx":0,"dy":0},{"dx":0,"dy":0},{"dx":0,"dy":0},{"dx":4,"dy":2},{"dx":3,"dy":1},{"dx":5,"dy":2},{"dx":5,"dy":3},{"dx":0,"dy":0},{"dx":4,"dy":3},{"dx":8,"dy":5},{"dx":5,"dy":4},{"dx":1,"dy":0},{"dx":9,"dy":3},{"dx":1,"dy":1},{"dx":5,"dy":0},{"dx":5,"dy":1},{"dx":1,"dy":0},{"dx":5,"dy":0},{"dx":1,"dy":0},{"dx":4,"dy":0},{"dx":1,"dy":-1},{"dx":9,"dy":-1},{"dx":4,"dy":-1},{"dx":1,"dy":-1},{"dx":4,"dy":-2},{"dx":4,"dy":-2},{"dx":1,"dy":0},{"dx":3,"dy":-3},{"dx":3,"dy":-3},{"dx":3,"dy":-5},{"dx":2,"dy":-6},{"dx":1,"dy":-5},{"dx":2,"dy":-6},{"dx":0,"dy":-1},{"dx":1,"dy":-6},{"dx":0,"dy":-5},{"dx":0,"dy":-5},{"dx":0,"dy":-7},{"dx":1,"dy":-5},{"dx":0,"dy":-7},{"dx":-1,"dy":-7},{"dx":-1,"dy":-6},{"dx":-1,"dy":-6},{"dx":-3,"dy":-6},{"dx":-2,"dy":-6},{"dx":-4,"dy":-6},{"dx":-8,"dy":-12},{"dx":-4,"dy":-4},{"dx":-4,"dy":-4},{"dx":-4,"dy":-4},{"dx":-5,"dy":-5},{"dx":-6,"dy":-4},{"dx":-8,"dy":-5},{"dx":-1,"dy":0},{"dx":-5,"dy":-2},{"dx":-5,"dy":0},{"dx":-5,"dy":1},{"dx":-5,"dy":3},{"dx":-6,"dy":3},{"dx":-1,"dy":0},{"dx":-4,"dy":2},{"dx":-3,"dy":3},{"dx":-4,"dy":4},{"dx":0,"dy":0},{"dx":-3,"dy":4},{"dx":-2,"dy":0},{"dx":-2,"dy":3},{"dx":-2,"dy":2},{"dx":-2,"dy":4},{"dx":-3,"dy":3},{"dx":-4,"dy":4},{"dx":0,"dy":0},{"dx":-3,"dy":3},{"dx":-5,"dy":3},{"dx":-4,"dy":3},{"dx":-5,"dy":3},{"dx":-6,"dy":3},{"dx":-5,"dy":2},{"dx":-4,"dy":1},{"dx":-5,"dy":2},{"dx":-1,"dy":0},{"dx":-4,"dy":2},{"dx":-6,"dy":1},{"dx":-1,"dy":1},{"dx":-4,"dy":0},{"dx":-2,"dy":0},{"dx":-1,"dy":0},{"dx":-1,"dy":0},{"dx":-2,"dy":0},{"dx":-1,"dy":0},{"dx":-1,"dy":-1},{"dx":-2,"dy":-1},{"dx":-1,"dy":-1},{"dx":-1,"dy":-1},{"dx":0,"dy":-2},{"dx":-1,"dy":-1},{"dx":-1,"dy":-2},{"dx":0,"dy":-2},{"dx":0,"dy":-1},{"dx":0,"dy":-2},{"dx":0,"dy":-2},{"dx":0,"dy":-2},{"dx":1,"dy":-5},{"dx":2,"dy":-4},{"dx":5,"dy":-4},{"dx":5,"dy":-2},{"dx":4,"dy":-2},{"dx":1,"dy":-1},{"dx":5,"dy":-2},{"dx":1,"dy":0},{"dx":4,"dy":-2},{"dx":1,"dy":0},{"dx":5,"dy":-1},{"dx":4,"dy":-1},{"dx":5,"dy":0},{"dx":6,"dy":0},{"dx":4,"dy":0},{"dx":4,"dy":0},{"dx":1,"dy":0},{"dx":4,"dy":1},{"dx":4,"dy":2},{"dx":5,"dy":2},{"dx":4,"dy":3},{"dx":5,"dy":3},{"dx":4,"dy":3},{"dx":4,"dy":3},{"dx":0,"dy":1},{"dx":4,"dy":5},{"dx":6,"dy":8},{"dx":2,"dy":3},{"dx":3,"dy":5},{"dx":3,"dy":4},{"dx":3,"dy":5},{"dx":4,"dy":5},{"dx":4,"dy":3},{"dx":3,"dy":3},{"dx":4,"dy":3},{"dx":8,"dy":7},{"dx":3,"dy":2},{"dx":4,"dy":3},{"dx":4,"dy":3},{"dx":4,"dy":2},{"dx":5,"dy":2},{"dx":4,"dy":2},{"dx":5,"dy":2},{"dx":5,"dy":0},{"dx":5,"dy":0},{"dx":0,"dy":0},{"dx":1,"dy":0},{"dx":5,"dy":0},{"dx":4,"dy":-2},{"dx":1,"dy":0},{"dx":4,"dy":-3},{"dx":5,"dy":-2},{"dx":4,"dy":-4},{"dx":3,"dy":-5},{"dx":0,"dy":0},{"dx":3,"dy":-4},{"dx":1,"dy":-2},{"dx":0,"dy":-1},{"dx":1,"dy":-5},{"dx":-1,"dy":-7},{"dx":0,"dy":-1},{"dx":-2,"dy":-6},{"dx":-4,"dy":-9},{"dx":0,"dy":-1},{"dx":-4,"dy":-6},{"dx":-4,"dy":-5},{"dx":-4,"dy":-4},{"dx":-3,"dy":-3},{"dx":-5,"dy":-7},{"dx":-3,"dy":-3},{"dx":-5,"dy":-3},{"dx":-4,"dy":-4},{"dx":-5,"dy":-2},{"dx":-3,"dy":-3},{"dx":-10,"dy":-5},{"dx":-6,"dy":-1},{"dx":-7,"dy":-1},{"dx":-5,"dy":0},{"dx":-5,"dy":0},{"dx":-5,"dy":0},{"dx":-8,"dy":1},{"dx":-4,"dy":1},{"dx":-4,"dy":1},{"dx":-3,"dy":1},{"dx":-5,"dy":1},{"dx":-6,"dy":2},{"dx":-4,"dy":2},{"dx":-4,"dy":2},{"dx":-5,"dy":2},{"dx":-4,"dy":2},{"dx":-5,"dy":3},{"dx":0,"dy":1},{"dx":-4,"dy":3},{"dx":-4,"dy":4},{"dx":-4,"dy":5},{"dx":-3,"dy":5},{"dx":-4,"dy":6},{"dx":-3,"dy":5},{"dx":-6,"dy":9},{"dx":-3,"dy":5},{"dx":-3,"dy":5},{"dx":-3,"dy":5},{"dx":-2,"dy":5},{"dx":-2,"dy":5},{"dx":-2,"dy":10},{"dx":0,"dy":5},{"dx":0,"dy":6},{"dx":0,"dy":5},{"dx":0,"dy":5},{"dx":0,"dy":6},{"dx":3,"dy":11},{"dx":2,"dy":5},{"dx":2,"dy":4},{"dx":2,"dy":5},{"dx":3,"dy":4},{"dx":4,"dy":4},{"dx":4,"dy":4},{"dx":4,"dy":2},{"dx":5,"dy":3},{"dx":12,"dy":6},{"dx":5,"dy":2},{"dx":4,"dy":3},{"dx":6,"dy":2},{"dx":5,"dy":2},{"dx":6,"dy":2},{"dx":10,"dy":5},{"dx":6,"dy":2},{"dx":4,"dy":2},{"dx":5,"dy":2},{"dx":4,"dy":2},{"dx":4,"dy":2},{"dx":4,"dy":3},{"dx":0,"dy":0},{"dx":0,"dy":2},{"dx":3,"dy":5},{"dx":0,"dy":1},{"dx":0,"dy":5},{"dx":0,"dy":2},{"dx":0,"dy":5},{"dx":-1,"dy":1},{"dx":-1,"dy":5},{"dx":-2,"dy":7},{"dx":0,"dy":0},{"dx":-2,"dy":5},{"dx":-3,"dy":3},{"dx":-3,"dy":4},{"dx":-5,"dy":4},{"dx":-1,"dy":0},{"dx":-5,"dy":3},{"dx":-4,"dy":2},{"dx":-6,"dy":3},{"dx":-4,"dy":1},{"dx":-7,"dy":2},{"dx":-4,"dy":1},{"dx":-5,"dy":0},{"dx":-6,"dy":0},{"dx":-5,"dy":-1},{"dx":-5,"dy":-1},{"dx":-11,"dy":-6},{"dx":-5,"dy":-3},{"dx":-4,"dy":-3},{"dx":-5,"dy":-2},{"dx":-4,"dy":-3},{"dx":-5,"dy":-2},{"dx":-7,"dy":-4},{"dx":-3,"dy":-3},{"dx":-4,"dy":-3},{"dx":-3,"dy":-4},{"dx":-3,"dy":-3},{"dx":-4,"dy":-6},{"dx":-6,"dy":-12},{"dx":-2,"dy":-5},{"dx":-2,"dy":-5},{"dx":-2,"dy":-7},{"dx":-1,"dy":-5},{"dx":-1,"dy":-5},{"dx":-1,"dy":-7},{"dx":-1,"dy":-8},{"dx":0,"dy":-5},{"dx":0,"dy":-5},{"dx":2,"dy":-6},{"dx":1,"dy":-5},{"dx":1,"dy":-5},{"dx":2,"dy":-6},{"dx":0,"dy":-1},{"dx":1,"dy":-5},{"dx":3,"dy":-6},{"dx":3,"dy":-4},{"dx":4,"dy":-5},{"dx":3,"dy":-4},{"dx":4,"dy":-3},{"dx":1,"dy":0},{"dx":5,"dy":-2},{"dx":4,"dy":0},{"dx":5,"dy":0},{"dx":6,"dy":1},{"dx":4,"dy":1},{"dx":5,"dy":1},{"dx":11,"dy":3},{"dx":7,"dy":1},{"dx":8,"dy":1},{"dx":6,"dy":0},{"dx":4,"dy":0},{"dx":5,"dy":0},{"dx":9,"dy":0},{"dx":4,"dy":1},{"dx":4,"dy":0},{"dx":4,"dy":0},{"dx":4,"dy":0},{"dx":4,"dy":0},{"dx":8,"dy":-3},{"dx":6,"dy":-2},{"dx":5,"dy":-1},{"dx":4,"dy":-2},{"dx":5,"dy":-4},{"dx":3,"dy":-4},{"dx":3,"dy":-5},{"dx":2,"dy":-5},{"dx":3,"dy":-5},{"dx":4,"dy":-9},{"dx":0,"dy":0},{"dx":2,"dy":-6},{"dx":1,"dy":-10},{"dx":0,"dy":-6},{"dx":0,"dy":-6},{"dx":0,"dy":-6},{"dx":-1,"dy":-6},{"dx":0,"dy":0},{"dx":-5,"dy":-10},{"dx":0,"dy":-1},{"dx":-3,"dy":-7},{"dx":-5,"dy":-8},{"dx":-3,"dy":-4},{"dx":-3,"dy":-3},{"dx":-4,"dy":-4},{"dx":-5,"dy":-3},{"dx":-4,"dy":-3},{"dx":-12,"dy":-3},{"dx":-7,"dy":-2},{"dx":-7,"dy":-1},{"dx":-7,"dy":-1},{"dx":-7,"dy":0},{"dx":-6,"dy":0},{"dx":-6,"dy":0},{"dx":-9,"dy":1},{"dx":0,"dy":0},{"dx":-5,"dy":2},{"dx":-5,"dy":2},{"dx":-4,"dy":4},{"dx":-4,"dy":4},{"dx":-2,"dy":5},{"dx":-2,"dy":4},{"dx":-4,"dy":8},{"dx":-3,"dy":5},{"dx":0,"dy":1},{"dx":-3,"dy":5},{"dx":-2,"dy":6},{"dx":-2,"dy":5},{"dx":-2,"dy":6},{"dx":-1,"dy":6},{"dx":0,"dy":1},{"dx":-2,"dy":7},{"dx":0,"dy":5},{"dx":0,"dy":1},{"dx":0,"dy":6},{"dx":1,"dy":5},{"dx":3,"dy":6},{"dx":0,"dy":0},{"dx":2,"dy":5},{"dx":3,"dy":4},{"dx":4,"dy":4},{"dx":4,"dy":3},{"dx":5,"dy":3},{"dx":5,"dy":2},{"dx":7,"dy":1},{"dx":6,"dy":2},{"dx":5,"dy":2},{"dx":5,"dy":2},{"dx":1,"dy":0},{"dx":4,"dy":3},{"dx":4,"dy":3},{"dx":1,"dy":0},{"dx":0,"dy":0},{"dx":3,"dy":4},{"dx":0,"dy":1},{"dx":0,"dy":1},{"dx":2,"dy":7},{"dx":0,"dy":4},{"dx":0,"dy":1},{"dx":0,"dy":2},{"dx":0,"dy":4},{"dx":0,"dy":1},{"dx":-3,"dy":5},{"dx":-1,"dy":5},{"dx":-1,"dy":1},{"dx":-2,"dy":4},{"dx":-3,"dy":3},{"dx":-4,"dy":2},{"dx":0,"dy":1},{"dx":-2,"dy":0},{"dx":-4,"dy":2},{"dx":-1,"dy":0},{"dx":-1,"dy":0},{"dx":-1,"dy":0},{"dx":-2,"dy":1},{"dx":-2,"dy":0},{"dx":-1,"dy":0},{"dx":-5,"dy":-2},{"dx":-1,"dy":0},{"dx":-1,"dy":-1},{"dx":-1,"dy":-1},{"dx":-1,"dy":-1},{"dx":0,"dy":0},{"dx":-1,"dy":-2},{"dx":0,"dy":-1},{"dx":0,"dy":-1},{"dx":-1,"dy":-1},{"dx":0,"dy":-1},{"dx":0,"dy":-2},{"dx":0,"dy":-1},{"dx":0,"dy":-1},{"dx":0,"dy":-2},{"dx":0,"dy":-1},{"dx":0,"dy":-2},{"dx":0,"dy":-1},{"dx":0,"dy":-3},{"dx":0,"dy":-1},{"dx":0,"dy":-5},{"dx":1,"dy":-2},{"dx":0,"dy":-2},{"dx":0,"dy":-1},{"dx":1,"dy":-2},{"dx":1,"dy":-1},{"dx":4,"dy":-2},{"dx":1,"dy":0},{"dx":4,"dy":0},{"dx":1,"dy":0},{"dx":2,"dy":0},{"dx":3,"dy":0}],"trial_type":"plugin-moving-dots-2","trial_index":16,"plugin_version":"0.0.1","time_elapsed":77634},{"task":"fixation","rt":1057,"stimulus":"<div style=\"font-size:60px;\">+</div>","response":" ","trial_type":"html-keyboard-response","trial_index":17,"plugin_version":"2.1.0","time_elapsed":78693},{"task":"movingdots","control_change":0,"mouse_data":[{"dx":0,"dy":0},{"dx":0,"dy":0},{"dx":0,"dy":0},{"dx":0,"dy":0},{"dx":0,"dy":0},{"dx":0,"dy":0},{"dx":0,"dy":0},{"dx":0,"dy":0},{"dx":0,"dy":0},{"dx":0,"dy":0},{"dx":0,"dy":0},{"dx":0,"dy":0},{"dx":0,"dy":0},{"dx":0,"dy":0},{"dx":0,"dy":0},{"dx":0,"dy":0},{"dx":-2,"dy":5},{"dx":-3,"dy":4},{"dx":-3,"dy":3},{"dx":-9,"dy":9},{"dx":-6,"dy":4},{"dx":-5,"dy":4},{"dx":-6,"dy":3},{"dx":-7,"dy":2},{"dx":-7,"dy":3},{"dx":-16,"dy":4},{"dx":-7,"dy":2},{"dx":-10,"dy":1},{"dx":-16,"dy":0},{"dx":-10,"dy":0},{"dx":-9,"dy":-3},{"dx":-10,"dy":-3},{"dx":-9,"dy":-2},{"dx":-7,"dy":-3},{"dx":-11,"dy":-6},{"dx":-5,"dy":-4},{"dx":-5,"dy":-4},{"dx":-4,"dy":-5},{"dx":-3,"dy":-5},{"dx":-3,"dy":-5},{"dx":-5,"dy":-18},{"dx":0,"dy":-12},{"dx":0,"dy":-13},{"dx":2,"dy":-18},{"dx":2,"dy":-14},{"dx":1,"dy":-7},{"dx":4,"dy":-17},{"dx":1,"dy":-6},{"dx":4,"dy":-9},{"dx":7,"dy":-14},{"dx":5,"dy":-10},{"dx":5,"dy":-8},{"dx":5,"dy":-5},{"dx":4,"dy":-4},{"dx":4,"dy":-4},{"dx":8,"dy":-8},{"dx":8,"dy":-6},{"dx":9,"dy":-5},{"dx":10,"dy":-5},{"dx":7,"dy":-3},{"dx":5,"dy":-2},{"dx":13,"dy":-2},{"dx":7,"dy":0},{"dx":8,"dy":0},{"dx":13,"dy":2},{"dx":10,"dy":2},{"dx":12,"dy":3},{"dx":14,"dy":7},{"dx":14,"dy":5},{"dx":14,"dy":4},{"dx":16,"dy":7},{"dx":11,"dy":5},{"dx":9,"dy":6},{"dx":8,"dy":6},{"dx":5,"dy":6},{"dx":5,"dy":7},{"dx":6,"dy":12},{"dx":2,"dy":5},{"dx":4,"dy":6},{"dx":2,"dy":5},{"dx":3,"dy":6},{"dx":1,"dy":8},{"dx":2,"dy":17},{"dx":0,"dy":9},{"dx":0,"dy":10},{"dx":-2,"dy":12},{"dx":-2,"dy":9},{"dx":-2,"dy":5},{"dx":-4,"dy":9},{"dx":-2,"dy":4},{"dx":-4,"dy":5},{"dx":-11,"dy":9},{"dx":-7,"dy":6},{"dx":-9,"dy":5},{"dx":-15,"dy":6},{"dx":-11,"dy":3},{"dx":-13,"dy":1},{"dx":-20,"dy":2},{"dx":-13,"dy":2},{"dx":-14,"dy":1},{"dx":-22,"dy":-2},{"dx":-14,"dy":-3},{"dx":-11,"dy":-3},{"dx":-17,"dy":-5},{"dx":-10,"dy":-3},{"dx":-11,"dy":-4},{"dx":-15,"dy":-6},{"dx":-10,"dy":-5},{"dx":-5,"dy":-3},{"dx":-9,"dy":-8},{"dx":-4,"dy":-8},{"dx":-2,"dy":-7},{"dx":-1,"dy":-21},{"dx":0,"dy":-12},{"dx":1,"dy":-14},{"dx":2,"dy":-17},{"dx":2,"dy":-9},{"dx":2,"dy":-7},{"dx":3,"dy":-9},{"dx":5,"dy":-9},{"dx":5,"dy":-6},{"dx":11,"dy":-14},{"dx":7,"dy":-5},{"dx":7,"dy":-3},{"dx":13,"dy":-4},{"dx":9,"dy":-3},{"dx":12,"dy":-1},{"dx":19,"dy":-1},{"dx":10,"dy":2},{"dx":11,"dy":3},{"dx":23,"dy":4},{"dx":13,"dy":2},{"dx":19,"dy":4},{"dx":17,"dy":3},{"dx":17,"dy":6},{"dx":10,"dy":4},{"dx":7,"dy":7},{"dx":5,"dy":6},{"dx":3,"dy":7},{"dx":3,"dy":8},{"dx":3,"dy":23},{"dx":1,"dy":13},{"dx":2,"dy":14},{"dx":4,"dy":17},{"dx":4,"dy":9},{"dx":6,"dy":6},{"dx":14,"dy":8},{"dx":9,"dy":4},{"dx":6,"dy":3},{"dx":18,"dy":7},{"dx":12,"dy":2},{"dx":5,"dy":1},{"dx":13,"dy":2},{"dx":6,"dy":0},{"dx":7,"dy":-1},{"dx":7,"dy":-2},{"dx":6,"dy":-2},{"dx":5,"dy":-3},{"dx":12,"dy":-10},{"dx":6,"dy":-7},{"dx":7,"dy":-9},{"dx":5,"dy":-8},{"dx":3,"dy":-6},{"dx":2,"dy":-6},{"dx":3,"dy":-16},{"dx":0,"dy":-9},{"dx":-1,"dy":-9},{"dx":-3,"dy":-7},{"dx":-2,"dy":-7},{"dx":-5,"dy":-13},{"dx":-5,"dy":-9},{"dx":-3,"dy":-6},{"dx":-3,"dy":-4},{"dx":-15,"dy":-7},{"dx":-12,"dy":-3},{"dx":-10,"dy":-2},{"dx":-7,"dy":0},{"dx":-6,"dy":0},{"dx":-6,"dy":0},{"dx":-11,"dy":1},{"dx":-5,"dy":1},{"dx":-4,"dy":2},{"dx":-4,"dy":2},{"dx":-4,"dy":4},{"dx":-3,"dy":4},{"dx":-10,"dy":12},{"dx":-5,"dy":6},{"dx":-3,"dy":5},{"dx":-12,"dy":14},{"dx":-7,"dy":8},{"dx":-8,"dy":8},{"dx":-16,"dy":10},{"dx":-10,"dy":6},{"dx":-14,"dy":7},{"dx":-17,"dy":9},{"dx":-12,"dy":5},{"dx":-12,"dy":5},{"dx":-18,"dy":5},{"dx":-11,"dy":3},{"dx":-13,"dy":3},{"dx":-20,"dy":3},{"dx":-11,"dy":3},{"dx":-16,"dy":2},{"dx":-20,"dy":2},{"dx":-14,"dy":0},{"dx":-16,"dy":2},{"dx":-18,"dy":0},{"dx":-10,"dy":-1},{"dx":-9,"dy":-1},{"dx":-14,"dy":-7},{"dx":-4,"dy":-3},{"dx":-7,"dy":-6},{"dx":-7,"dy":-12},{"dx":-3,"dy":-9},{"dx":-1,"dy":-9},{"dx":0,"dy":-19},{"dx":1,"dy":-10},{"dx":2,"dy":-13},{"dx":5,"dy":-18},{"dx":5,"dy":-12},{"dx":6,"dy":-11},{"dx":9,"dy":-18},{"dx":5,"dy":-9},{"dx":2,"dy":-5},{"dx":7,"dy":-10},{"dx":5,"dy":-3},{"dx":6,"dy":-2},{"dx":7,"dy":-1},{"dx":5,"dy":-1},{"dx":6,"dy":2},{"dx":2,"dy":4},{"dx":3,"dy":6},{"dx":2,"dy":8},{"dx":2,"dy":6},{"dx":5,"dy":18},{"dx":4,"dy":10},{"dx":8,"dy":19},{"dx":6,"dy":12},{"dx":6,"dy":13},{"dx":11,"dy":17},{"dx":10,"dy":14},{"dx":9,"dy":12},{"dx":10,"dy":15},{"dx":6,"dy":9},{"dx":6,"dy":9},{"dx":7,"dy":11},{"dx":8,"dy":8},{"dx":10,"dy":7},{"dx":13,"dy":9},{"dx":13,"dy":5},{"dx":14,"dy":5},{"dx":19,"dy":7},{"dx":14,"dy":5},{"dx":13,"dy":4},{"dx":10,"dy":3},{"dx":8,"dy":3},{"dx":13,"dy":0},{"dx":10,"dy":0},{"dx":8,"dy":-3},{"dx":12,"dy":-6},{"dx":16,"dy":-14},{"dx":14,"dy":-11},{"dx":11,"dy":-11},{"dx":15,"dy":-15},{"dx":9,"dy":-11},{"dx":8,"dy":-8},{"dx":10,"dy":-13},{"dx":6,"dy":-14},{"dx":6,"dy":-21},{"dx":6,"dy":-28},{"dx":3,"dy":-19},{"dx":0,"dy":-12},{"dx":0,"dy":-9},{"dx":-2,"dy":-6},{"dx":-8,"dy":-9},{"dx":-15,"dy":-10},{"dx":-10,"dy":-5},{"dx":-9,"dy":-4},{"dx":-14,"dy":-5},{"dx":-10,"dy":-2},{"dx":-11,"dy":-2},{"dx":-13,"dy":-1},{"dx":-6,"dy":0},{"dx":-6,"dy":2},{"dx":-5,"dy":2},{"dx":-4,"dy":4},{"dx":-3,"dy":2},{"dx":-6,"dy":9},{"dx":-2,"dy":4},{"dx":-3,"dy":6},{"dx":-3,"dy":6},{"dx":-6,"dy":14},{"dx":-5,"dy":11},{"dx":-6,"dy":14},{"dx":-9,"dy":26},{"dx":-7,"dy":17},{"dx":-14,"dy":22},{"dx":-9,"dy":9},{"dx":-11,"dy":10},{"dx":-11,"dy":7},{"dx":-19,"dy":8},{"dx":-12,"dy":4},{"dx":-14,"dy":5},{"dx":-21,"dy":5},{"dx":-11,"dy":2},{"dx":-10,"dy":2},{"dx":-17,"dy":2},{"dx":-11,"dy":1},{"dx":-12,"dy":0},{"dx":-17,"dy":-1},{"dx":-10,"dy":-2},{"dx":-10,"dy":-3},{"dx":-14,"dy":-10},{"dx":-9,"dy":-8},{"dx":-7,"dy":-11},{"dx":-7,"dy":-11},{"dx":-3,"dy":-10},{"dx":-3,"dy":-11},{"dx":-2,"dy":-18},{"dx":0,"dy":-10},{"dx":0,"dy":-7},{"dx":0,"dy":-9},{"dx":2,"dy":-8},{"dx":3,"dy":-7},{"dx":7,"dy":-15},{"dx":5,"dy":-5},{"dx":3,"dy":-4},{"dx":1,"dy":-1},{"dx":1,"dy":-1},{"dx":1,"dy":0},{"dx":1,"dy":0},{"dx":3,"dy":4},{"dx":5,"dy":11},{"dx":8,"dy":18},{"dx":7,"dy":14},{"dx":5,"dy":11},{"dx":12,"dy":14},{"dx":8,"dy":11},{"dx":9,"dy":9},{"dx":11,"dy":11},{"dx":7,"dy":8},{"dx":8,"dy":6},{"dx":12,"dy":13},{"dx":9,"dy":8},{"dx":8,"dy":7},{"dx":13,"dy":11},{"dx":10,"dy":5},{"dx":10,"dy":5},{"dx":6,"dy":3},{"dx":5,"dy":2},{"dx":4,"dy":2},{"dx":5,"dy":0},{"dx":13,"dy":-3},{"dx":7,"dy":-2},{"dx":6,"dy":-2},{"dx":11,"dy":-3},{"dx":9,"dy":-4},{"dx":11,"dy":-7},{"dx":8,"dy":-9},{"dx":7,"dy":-11},{"dx":9,"dy":-12},{"dx":10,"dy":-14},{"dx":3,"dy":-6},{"dx":3,"dy":-8},{"dx":4,"dy":-12},{"dx":1,"dy":-6},{"dx":0,"dy":-1},{"dx":0,"dy":-6},{"dx":0,"dy":-4},{"dx":-1,"dy":-7},{"dx":-2,"dy":-6},{"dx":0,"dy":-1},{"dx":-4,"dy":-5},{"dx":-7,"dy":-9},{"dx":-4,"dy":-3},{"dx":-3,"dy":-4},{"dx":-4,"dy":-4},{"dx":0,"dy":-1},{"dx":-4,"dy":-3},{"dx":0,"dy":0},{"dx":0,"dy":0},{"dx":0,"dy":-1},{"dx":-1,"dy":0},{"dx":-2,"dy":0},{"dx":-5,"dy":0},{"dx":-6,"dy":0},{"dx":-11,"dy":1},{"dx":-12,"dy":2},{"dx":-9,"dy":1},{"dx":-8,"dy":2},{"dx":-7,"dy":1},{"dx":-9,"dy":4},{"dx":-4,"dy":2},{"dx":-4,"dy":3},{"dx":-4,"dy":4},{"dx":-3,"dy":5},{"dx":-2,"dy":7},{"dx":-4,"dy":20},{"dx":0,"dy":10},{"dx":2,"dy":12},{"dx":4,"dy":17},{"dx":2,"dy":8},{"dx":1,"dy":8},{"dx":0,"dy":7},{"dx":0,"dy":5},{"dx":0,"dy":6},{"dx":-1,"dy":4},{"dx":-6,"dy":4},{"dx":-4,"dy":3},{"dx":-5,"dy":2},{"dx":-6,"dy":2},{"dx":-7,"dy":0},{"dx":-10,"dy":-1},{"dx":-4,"dy":-3},{"dx":-5,"dy":-4},{"dx":-7,"dy":-5},{"dx":-6,"dy":-4},{"dx":-6,"dy":-4},{"dx":-8,"dy":-8},{"dx":-4,"dy":-3},{"dx":-3,"dy":-3},{"dx":-3,"dy":-5},{"dx":-2,"dy":-5},{"dx":-2,"dy":-5},{"dx":-1,"dy":-6},{"dx":-1,"dy":-7},{"dx":0,"dy":-5},{"dx":1,"dy":-9},{"dx":2,"dy":-5},{"dx":0,"dy":-2},{"dx":3,"dy":-6},{"dx":0,"dy":-1},{"dx":1,"dy":-1},{"dx":0,"dy":-1},{"dx":0,"dy":0},{"dx":0,"dy":0},{"dx":2,"dy":0},{"dx":3,"dy":3},{"dx":2,"dy":5},{"dx":5,"dy":14},{"dx":2,"dy":6},{"dx":2,"dy":5},{"dx":3,"dy":5},{"dx":3,"dy":2},{"dx":4,"dy":4},{"dx":16,"dy":7},{"dx":7,"dy":4},{"dx":8,"dy":6},{"dx":6,"dy":5},{"dx":4,"dy":5},{"dx":5,"dy":4},{"dx":9,"dy":9},{"dx":6,"dy":3}],"trial_type":"plugin-moving-dots-2","trial_index":18,"plugin_version":"0.0.1","time_elapsed":86201},{"task":"fixation","rt":1706,"stimulus":"<div style=\"font-size:60px;\">+</div>","response":" ","trial_type":"html-keyboard-response","trial_index":19,"plugin_version":"2.1.0","time_elapsed":87909},{"task":"movingdots","control_change":0,"mouse_data":[{"dx":0,"dy":0},{"dx":0,"dy":0},{"dx":0,"dy":0},{"dx":0,"dy":0},{"dx":0,"dy":0},{"dx":0,"dy":0},{"dx":0,"dy":0},{"dx":0,"dy":0},{"dx":0,"dy":0},{"dx":0,"dy":0},{"dx":0,"dy":0},{"dx":0,"dy":0},{"dx":0,"dy":0},{"dx":0,"dy":0},{"dx":0,"dy":0},{"dx":0,"dy":0},{"dx":0,"dy":0},{"dx":0,"dy":0},{"dx":0,"dy":0},{"dx":0,"dy":0},{"dx":0,"dy":0},{"dx":0,"dy":0},{"dx":0,"dy":0},{"dx":0,"dy":0},{"dx":-2,"dy":5},{"dx":-3,"dy":5},{"dx":-5,"dy":9},{"dx":-5,"dy":6},{"dx":-4,"dy":5},{"dx":-5,"dy":6},{"dx":-6,"dy":5},{"dx":-6,"dy":6},{"dx":-10,"dy":8},{"dx":-7,"dy":4},{"dx":-7,"dy":2},{"dx":-6,"dy":0},{"dx":-8,"dy":1},{"dx":-7,"dy":0},{"dx":-16,"dy":0},{"dx":-10,"dy":-1},{"dx":-14,"dy":-5},{"dx":-8,"dy":-3},{"dx":-6,"dy":-4},{"dx":-7,"dy":-4},{"dx":-4,"dy":-4},{"dx":-5,"dy":-5},{"dx":-5,"dy":-6},{"dx":-10,"dy":-13},{"dx":-5,"dy":-8},{"dx":-4,"dy":-10},{"dx":-4,"dy":-7},{"dx":-4,"dy":-8},{"dx":-3,"dy":-8},{"dx":-3,"dy":-15},{"dx":-2,"dy":-12},{"dx":0,"dy":-8},{"dx":-1,"dy":-13},{"dx":0,"dy":-6},{"dx":0,"dy":-8},{"dx":1,"dy":-12},{"dx":3,"dy":-11},{"dx":1,"dy":-8},{"dx":3,"dy":-13},{"dx":0,"dy":-1},{"dx":2,"dy":-6},{"dx":4,"dy":-9},{"dx":3,"dy":-4},{"dx":3,"dy":-4},{"dx":5,"dy":-3},{"dx":6,"dy":-2},{"dx":6,"dy":-1},{"dx":11,"dy":0},{"dx":9,"dy":2},{"dx":8,"dy":2},{"dx":7,"dy":3},{"dx":6,"dy":4},{"dx":5,"dy":4},{"dx":13,"dy":14},{"dx":8,"dy":10},{"dx":9,"dy":10},{"dx":13,"dy":17},{"dx":8,"dy":10},{"dx":9,"dy":10},{"dx":14,"dy":15},{"dx":7,"dy":10},{"dx":9,"dy":10},{"dx":13,"dy":16},{"dx":13,"dy":8},{"dx":11,"dy":7},{"dx":28,"dy":14},{"dx":22,"dy":11},{"dx":18,"dy":8},{"dx":24,"dy":11},{"dx":13,"dy":5},{"dx":11,"dy":3},{"dx":16,"dy":2},{"dx":10,"dy":0},{"dx":5,"dy":-1},{"dx":16,"dy":-6},{"dx":12,"dy":-7},{"dx":11,"dy":-8},{"dx":13,"dy":-12},{"dx":8,"dy":-8},{"dx":8,"dy":-11},{"dx":13,"dy":-22},{"dx":7,"dy":-12},{"dx":6,"dy":-14},{"dx":7,"dy":-20},{"dx":6,"dy":-13},{"dx":7,"dy":-16},{"dx":10,"dy":-31},{"dx":5,"dy":-12},{"dx":1,"dy":-10},{"dx":-2,"dy":-16},{"dx":-6,"dy":-14},{"dx":-5,"dy":-11},{"dx":-11,"dy":-15},{"dx":-7,"dy":-8},{"dx":-6,"dy":-6},{"dx":-12,"dy":-10},{"dx":-5,"dy":-4},{"dx":-5,"dy":-5},{"dx":-4,"dy":-2},{"dx":-6,"dy":-3},{"dx":-4,"dy":0},{"dx":-5,"dy":0},{"dx":-10,"dy":5},{"dx":-4,"dy":3},{"dx":-3,"dy":4},{"dx":-4,"dy":6},{"dx":-7,"dy":10},{"dx":-7,"dy":12},{"dx":-10,"dy":21},{"dx":-7,"dy":15},{"dx":-6,"dy":13},{"dx":-9,"dy":19},{"dx":-8,"dy":15},{"dx":-9,"dy":13},{"dx":-14,"dy":26},{"dx":-9,"dy":16},{"dx":-10,"dy":14},{"dx":-15,"dy":16},{"dx":-10,"dy":10},{"dx":-11,"dy":8},{"dx":-18,"dy":12},{"dx":-10,"dy":8},{"dx":-13,"dy":6},{"dx":-21,"dy":10},{"dx":-13,"dy":6},{"dx":-14,"dy":6},{"dx":-24,"dy":4},{"dx":-16,"dy":4},{"dx":-17,"dy":3},{"dx":-20,"dy":3},{"dx":-14,"dy":0},{"dx":-12,"dy":-1},{"dx":-16,"dy":-4},{"dx":-10,"dy":-4},{"dx":-8,"dy":-4},{"dx":-9,"dy":-8},{"dx":-6,"dy":-6},{"dx":-4,"dy":-5},{"dx":-4,"dy":-6},{"dx":-2,"dy":-6},{"dx":-3,"dy":-5},{"dx":-3,"dy":-12},{"dx":0,"dy":-8},{"dx":0,"dy":-10},{"dx":2,"dy":-18},{"dx":3,"dy":-11},{"dx":1,"dy":-6},{"dx":5,"dy":-17},{"dx":1,"dy":-6},{"dx":1,"dy":-1},{"dx":2,"dy":-4},{"dx":0,"dy":-1},{"dx":0,"dy":-1},{"dx":0,"dy":-1},{"dx":0,"dy":0},{"dx":0,"dy":0},{"dx":0,"dy":0},{"dx":0,"dy":0},{"dx":1,"dy":0},{"dx":1,"dy":-1},{"dx":4,"dy":1},{"dx":4,"dy":3},{"dx":6,"dy":11},{"dx":3,"dy":5},{"dx":3,"dy":7},{"dx":4,"dy":9},{"dx":3,"dy":8},{"dx":3,"dy":9},{"dx":7,"dy":13},{"dx":3,"dy":5},{"dx":4,"dy":6},{"dx":9,"dy":10},{"dx":7,"dy":6},{"dx":7,"dy":6},{"dx":10,"dy":7},{"dx":10,"dy":5},{"dx":12,"dy":3},{"dx":16,"dy":5},{"dx":10,"dy":4},{"dx":10,"dy":2},{"dx":18,"dy":3},{"dx":9,"dy":2},{"dx":12,"dy":1},{"dx":20,"dy":0},{"dx":9,"dy":0},{"dx":10,"dy":-3},{"dx":17,"dy":-3},{"dx":10,"dy":-3},{"dx":8,"dy":-3},{"dx":13,"dy":-7},{"dx":10,"dy":-8},{"dx":10,"dy":-12},{"dx":13,"dy":-16},{"dx":9,"dy":-11},{"dx":8,"dy":-11},{"dx":13,"dy":-20},{"dx":6,"dy":-9},{"dx":6,"dy":-11},{"dx":7,"dy":-17},{"dx":3,"dy":-12},{"dx":3,"dy":-11},{"dx":3,"dy":-11},{"dx":2,"dy":-8},{"dx":3,"dy":-7},{"dx":7,"dy":-14},{"dx":4,"dy":-4},{"dx":3,"dy":-4},{"dx":2,"dy":-3},{"dx":1,"dy":-1},{"dx":3,"dy":-3},{"dx":1,"dy":0},{"dx":5,"dy":-1},{"dx":5,"dy":1},{"dx":4,"dy":4},{"dx":5,"dy":5},{"dx":8,"dy":10},{"dx":11,"dy":17},{"dx":6,"dy":12},{"dx":7,"dy":14},{"dx":12,"dy":22},{"dx":5,"dy":12},{"dx":4,"dy":11},{"dx":6,"dy":17},{"dx":2,"dy":9},{"dx":1,"dy":5},{"dx":1,"dy":6},{"dx":0,"dy":6},{"dx":-1,"dy":6},{"dx":-6,"dy":18},{"dx":-5,"dy":12},{"dx":-5,"dy":13},{"dx":-6,"dy":20},{"dx":-2,"dy":5},{"dx":-3,"dy":9},{"dx":-5,"dy":10},{"dx":-4,"dy":6},{"dx":-4,"dy":7},{"dx":-11,"dy":12},{"dx":-6,"dy":7},{"dx":-5,"dy":8},{"dx":-4,"dy":6},{"dx":-3,"dy":4},{"dx":-3,"dy":5},{"dx":-9,"dy":9},{"dx":-7,"dy":6},{"dx":-7,"dy":5},{"dx":-10,"dy":7},{"dx":-8,"dy":4},{"dx":-10,"dy":4},{"dx":-13,"dy":5},{"dx":-11,"dy":3},{"dx":-11,"dy":2},{"dx":-15,"dy":1},{"dx":-8,"dy":0},{"dx":-11,"dy":0},{"dx":-16,"dy":-3},{"dx":-10,"dy":-3},{"dx":-10,"dy":-6},{"dx":-17,"dy":-10},{"dx":-10,"dy":-8},{"dx":-11,"dy":-7},{"dx":-12,"dy":-8},{"dx":-18,"dy":-11},{"dx":-12,"dy":-7},{"dx":-13,"dy":-10},{"dx":-19,"dy":-13},{"dx":-11,"dy":-7},{"dx":-9,"dy":-5},{"dx":-10,"dy":-4},{"dx":-8,"dy":-1},{"dx":-6,"dy":0},{"dx":-12,"dy":2},{"dx":-6,"dy":3},{"dx":-6,"dy":3},{"dx":-10,"dy":8},{"dx":-6,"dy":6},{"dx":-6,"dy":7},{"dx":-10,"dy":10},{"dx":-6,"dy":7},{"dx":-5,"dy":7},{"dx":-4,"dy":6},{"dx":-5,"dy":5},{"dx":-5,"dy":5},{"dx":-10,"dy":9},{"dx":-9,"dy":3},{"dx":-7,"dy":1},{"dx":-15,"dy":1},{"dx":-12,"dy":-1},{"dx":-13,"dy":-2},{"dx":-19,"dy":-7},{"dx":-11,"dy":-7},{"dx":-12,"dy":-8},{"dx":-15,"dy":-14},{"dx":-6,"dy":-10},{"dx":-7,"dy":-12},{"dx":-6,"dy":-20},{"dx":-2,"dy":-12},{"dx":-2,"dy":-13},{"dx":0,"dy":-18},{"dx":0,"dy":-14},{"dx":0,"dy":-15},{"dx":2,"dy":-21},{"dx":3,"dy":-13},{"dx":4,"dy":-13},{"dx":8,"dy":-18},{"dx":8,"dy":-11},{"dx":11,"dy":-10},{"dx":15,"dy":-15},{"dx":9,"dy":-8},{"dx":9,"dy":-6},{"dx":11,"dy":-7},{"dx":11,"dy":-3},{"dx":10,"dy":-1},{"dx":13,"dy":0},{"dx":8,"dy":5},{"dx":6,"dy":4},{"dx":12,"dy":9},{"dx":9,"dy":8},{"dx":9,"dy":7},{"dx":10,"dy":13},{"dx":4,"dy":4},{"dx":5,"dy":6},{"dx":9,"dy":9},{"dx":3,"dy":5},{"dx":3,"dy":5},{"dx":4,"dy":6},{"dx":3,"dy":7},{"dx":3,"dy":6},{"dx":7,"dy":12},{"dx":6,"dy":9},{"dx":7,"dy":9},{"dx":7,"dy":7},{"dx":4,"dy":7},{"dx":5,"dy":7},{"dx":12,"dy":15},{"dx":8,"dy":9},{"dx":8,"dy":9},{"dx":8,"dy":7},{"dx":6,"dy":6},{"dx":10,"dy":8},{"dx":16,"dy":7},{"dx":12,"dy":4},{"dx":18,"dy":2},{"dx":30,"dy":1},{"dx":18,"dy":0},{"dx":15,"dy":-1},{"dx":22,"dy":-4},{"dx":22,"dy":-4},{"dx":23,"dy":-7},{"dx":41,"dy":-17},{"dx":17,"dy":-13},{"dx":12,"dy":-12},{"dx":25,"dy":-21},{"dx":17,"dy":-16},{"dx":19,"dy":-18},{"dx":24,"dy":-18},{"dx":12,"dy":-10},{"dx":9,"dy":-12},{"dx":12,"dy":-15},{"dx":13,"dy":-20},{"dx":9,"dy":-14},{"dx":8,"dy":-21},{"dx":4,"dy":-13},{"dx":1,"dy":-15},{"dx":0,"dy":-14},{"dx":-2,"dy":-20},{"dx":-4,"dy":-11},{"dx":-4,"dy":-9},{"dx":-10,"dy":-14},{"dx":-7,"dy":-11},{"dx":-7,"dy":-7},{"dx":-13,"dy":-8},{"dx":-10,"dy":-5},{"dx":-10,"dy":-3},{"dx":-15,"dy":-4},{"dx":-12,"dy":-1},{"dx":-10,"dy":0},{"dx":-16,"dy":1},{"dx":-10,"dy":3},{"dx":-5,"dy":2},{"dx":-15,"dy":9},{"dx":-4,"dy":3},{"dx":-7,"dy":6},{"dx":-11,"dy":14},{"dx":-8,"dy":8},{"dx":-8,"dy":10},{"dx":-9,"dy":15},{"dx":-7,"dy":11},{"dx":-6,"dy":10},{"dx":-11,"dy":16},{"dx":-6,"dy":11},{"dx":-7,"dy":10},{"dx":-9,"dy":17},{"dx":-7,"dy":9},{"dx":-7,"dy":10},{"dx":-11,"dy":15},{"dx":-7,"dy":8},{"dx":-6,"dy":9},{"dx":-7,"dy":7},{"dx":-7,"dy":6},{"dx":-6,"dy":5},{"dx":-11,"dy":10},{"dx":-5,"dy":3},{"dx":-5,"dy":5},{"dx":-6,"dy":4},{"dx":-6,"dy":5},{"dx":-5,"dy":4},{"dx":-10,"dy":5},{"dx":-5,"dy":3},{"dx":-6,"dy":3},{"dx":-6,"dy":4},{"dx":-8,"dy":3},{"dx":-6,"dy":3},{"dx":-11,"dy":5},{"dx":-6,"dy":2},{"dx":-6,"dy":2},{"dx":-6,"dy":0},{"dx":-7,"dy":0},{"dx":-5,"dy":0},{"dx":-12,"dy":-2},{"dx":-7,"dy":-3},{"dx":-6,"dy":-3},{"dx":-7,"dy":-5},{"dx":-4,"dy":-5},{"dx":-3,"dy":-5},{"dx":-4,"dy":-9},{"dx":-1,"dy":-1},{"dx":-1,"dy":-6},{"dx":-1,"dy":-5}],"trial_type":"plugin-moving-dots-2","trial_index":20,"plugin_version":"0.0.1","time_elapsed":95418},{"task":"fixation","rt":842,"stimulus":"<div style=\"font-size:60px;\">+</div>","response":" ","trial_type":"html-keyboard-response","trial_index":21,"plugin_version":"2.1.0","time_elapsed":96261},{"task":"movingdots","control_change":0,"mouse_data":[{"dx":0,"dy":0},{"dx":0,"dy":0},{"dx":0,"dy":0},{"dx":0,"dy":1},{"dx":0,"dy":0},{"dx":0,"dy":0},{"dx":0,"dy":0},{"dx":0,"dy":0},{"dx":0,"dy":0},{"dx":0,"dy":0},{"dx":0,"dy":0},{"dx":0,"dy":0},{"dx":0,"dy":0},{"dx":0,"dy":0},{"dx":0,"dy":0},{"dx":0,"dy":0},{"dx":0,"dy":0},{"dx":0,"dy":0},{"dx":0,"dy":0},{"dx":0,"dy":0},{"dx":0,"dy":0},{"dx":0,"dy":0},{"dx":0,"dy":0},{"dx":0,"dy":0},{"dx":0,"dy":0},{"dx":-5,"dy":1},{"dx":-12,"dy":2},{"dx":-3,"dy":0},{"dx":-5,"dy":0},{"dx":-6,"dy":0},{"dx":-4,"dy":0},{"dx":-4,"dy":-2},{"dx":-4,"dy":-3},{"dx":-5,"dy":-4},{"dx":-4,"dy":-4},{"dx":-5,"dy":-8},{"dx":-3,"dy":-4},{"dx":-4,"dy":-6},{"dx":-4,"dy":-6},{"dx":-4,"dy":-7},{"dx":-3,"dy":-5},{"dx":-4,"dy":-8},{"dx":-3,"dy":-6},{"dx":-2,"dy":-4},{"dx":-3,"dy":-6},{"dx":-2,"dy":-5},{"dx":-1,"dy":-6},{"dx":-2,"dy":-11},{"dx":0,"dy":-7},{"dx":0,"dy":-7},{"dx":1,"dy":-6},{"dx":2,"dy":-6},{"dx":2,"dy":-6},{"dx":3,"dy":-9},{"dx":2,"dy":-5},{"dx":3,"dy":-7},{"dx":3,"dy":-6},{"dx":4,"dy":-8},{"dx":6,"dy":-6},{"dx":8,"dy":-10},{"dx":3,"dy":-4},{"dx":2,"dy":-3},{"dx":5,"dy":-5},{"dx":5,"dy":-3},{"dx":9,"dy":-6},{"dx":7,"dy":-4},{"dx":5,"dy":-3},{"dx":3,"dy":-2},{"dx":4,"dy":-2},{"dx":1,"dy":0},{"dx":4,"dy":-1},{"dx":5,"dy":0},{"dx":5,"dy":2},{"dx":5,"dy":4},{"dx":11,"dy":10},{"dx":5,"dy":6},{"dx":5,"dy":6},{"dx":3,"dy":4},{"dx":4,"dy":4},{"dx":4,"dy":6},{"dx":5,"dy":10},{"dx":4,"dy":8},{"dx":2,"dy":8},{"dx":3,"dy":9},{"dx":3,"dy":7},{"dx":3,"dy":5},{"dx":6,"dy":8},{"dx":5,"dy":5},{"dx":6,"dy":4},{"dx":6,"dy":4},{"dx":6,"dy":3},{"dx":6,"dy":4},{"dx":17,"dy":4},{"dx":7,"dy":2},{"dx":8,"dy":2},{"dx":5,"dy":2},{"dx":5,"dy":1},{"dx":5,"dy":1},{"dx":5,"dy":0},{"dx":5,"dy":0},{"dx":5,"dy":-1},{"dx":6,"dy":-2},{"dx":6,"dy":-3},{"dx":3,"dy":-2},{"dx":5,"dy":-2},{"dx":3,"dy":-2},{"dx":4,"dy":-2},{"dx":5,"dy":-3},{"dx":3,"dy":-4},{"dx":0,"dy":0},{"dx":7,"dy":-10},{"dx":2,"dy":-4},{"dx":2,"dy":-6},{"dx":1,"dy":-6},{"dx":0,"dy":-5},{"dx":0,"dy":-6},{"dx":-1,"dy":-8},{"dx":-2,"dy":-5},{"dx":-4,"dy":-7},{"dx":-3,"dy":-6},{"dx":-4,"dy":-5},{"dx":-4,"dy":-5},{"dx":-6,"dy":-8},{"dx":-5,"dy":-3},{"dx":-5,"dy":-3},{"dx":-9,"dy":-2},{"dx":-7,"dy":-1},{"dx":-7,"dy":0},{"dx":-13,"dy":1},{"dx":-7,"dy":1},{"dx":-8,"dy":2},{"dx":-7,"dy":2},{"dx":-13,"dy":5},{"dx":-6,"dy":2},{"dx":-6,"dy":4},{"dx":-10,"dy":7},{"dx":-9,"dy":7},{"dx":-4,"dy":2},{"dx":-9,"dy":8},{"dx":-4,"dy":4},{"dx":-5,"dy":6},{"dx":-5,"dy":7},{"dx":-5,"dy":9},{"dx":-4,"dy":8},{"dx":-6,"dy":12},{"dx":-2,"dy":5},{"dx":-1,"dy":6},{"dx":-1,"dy":5},{"dx":-1,"dy":5},{"dx":0,"dy":7},{"dx":3,"dy":6},{"dx":4,"dy":4},{"dx":5,"dy":3},{"dx":6,"dy":3},{"dx":5,"dy":4},{"dx":4,"dy":2},{"dx":7,"dy":6},{"dx":5,"dy":3},{"dx":3,"dy":2},{"dx":5,"dy":4},{"dx":4,"dy":2},{"dx":5,"dy":3},{"dx":6,"dy":5},{"dx":3,"dy":3},{"dx":0,"dy":1},{"dx":4,"dy":3},{"dx":3,"dy":4},{"dx":3,"dy":3},{"dx":2,"dy":5},{"dx":0,"dy":0},{"dx":3,"dy":6},{"dx":2,"dy":5},{"dx":0,"dy":2},{"dx":2,"dy":5},{"dx":1,"dy":7},{"dx":0,"dy":0},{"dx":0,"dy":4},{"dx":0,"dy":8},{"dx":0,"dy":6},{"dx":-1,"dy":6},{"dx":-3,"dy":9},{"dx":-2,"dy":5},{"dx":-3,"dy":4},{"dx":-2,"dy":5},{"dx":-3,"dy":4},{"dx":-2,"dy":4},{"dx":-5,"dy":11},{"dx":-4,"dy":4},{"dx":-3,"dy":4},{"dx":-4,"dy":3},{"dx":-4,"dy":3},{"dx":-5,"dy":2},{"dx":-12,"dy":3},{"dx":-6,"dy":1},{"dx":-5,"dy":0},{"dx":-7,"dy":1},{"dx":-7,"dy":1},{"dx":-6,"dy":1},{"dx":-11,"dy":0},{"dx":-5,"dy":0},{"dx":-7,"dy":-1},{"dx":-6,"dy":0},{"dx":-8,"dy":-1},{"dx":-5,"dy":-1},{"dx":-13,"dy":-4},{"dx":-6,"dy":-2},{"dx":-6,"dy":-3},{"dx":-7,"dy":-5},{"dx":-5,"dy":-5},{"dx":-4,"dy":-4},{"dx":-7,"dy":-8},{"dx":-1,"dy":-1},{"dx":-4,"dy":-5},{"dx":-5,"dy":-8},{"dx":-1,"dy":-5},{"dx":-2,"dy":-5},{"dx":-2,"dy":-6},{"dx":-2,"dy":-6},{"dx":-2,"dy":-7},{"dx":-4,"dy":-10},{"dx":-1,"dy":-4},{"dx":-1,"dy":-6},{"dx":-1,"dy":-7},{"dx":0,"dy":-6},{"dx":0,"dy":-7},{"dx":0,"dy":-7},{"dx":0,"dy":-14},{"dx":2,"dy":-7},{"dx":0,"dy":-7},{"dx":1,"dy":-8},{"dx":1,"dy":-6},{"dx":2,"dy":-5},{"dx":3,"dy":-11},{"dx":1,"dy":-4},{"dx":2,"dy":-5},{"dx":2,"dy":-4},{"dx":2,"dy":-7},{"dx":3,"dy":-4},{"dx":4,"dy":-5},{"dx":3,"dy":-5},{"dx":0,"dy":-1},{"dx":1,"dy":-1},{"dx":0,"dy":0},{"dx":1,"dy":0},{"dx":1,"dy":0},{"dx":1,"dy":0},{"dx":1,"dy":0},{"dx":3,"dy":3},{"dx":3,"dy":6},{"dx":3,"dy":5},{"dx":3,"dy":6},{"dx":0,"dy":0},{"dx":1,"dy":5},{"dx":1,"dy":5},{"dx":1,"dy":4},{"dx":1,"dy":1},{"dx":1,"dy":6},{"dx":2,"dy":3},{"dx":2,"dy":7},{"dx":3,"dy":7},{"dx":0,"dy":0},{"dx":3,"dy":6},{"dx":4,"dy":9},{"dx":1,"dy":0},{"dx":2,"dy":5},{"dx":6,"dy":9},{"dx":2,"dy":4},{"dx":4,"dy":5},{"dx":4,"dy":4},{"dx":4,"dy":4},{"dx":3,"dy":3},{"dx":7,"dy":4},{"dx":3,"dy":2},{"dx":4,"dy":2},{"dx":7,"dy":2},{"dx":6,"dy":1},{"dx":6,"dy":2},{"dx":18,"dy":2},{"dx":8,"dy":1},{"dx":9,"dy":0},{"dx":17,"dy":-3},{"dx":13,"dy":-4},{"dx":10,"dy":-5},{"dx":21,"dy":-12},{"dx":13,"dy":-10},{"dx":13,"dy":-8},{"dx":18,"dy":-12},{"dx":10,"dy":-8},{"dx":8,"dy":-6},{"dx":5,"dy":-6},{"dx":4,"dy":-4},{"dx":4,"dy":-5},{"dx":3,"dy":-8},{"dx":2,"dy":-6},{"dx":1,"dy":-8},{"dx":0,"dy":-7},{"dx":0,"dy":-6},{"dx":0,"dy":-5},{"dx":-1,"dy":-10},{"dx":-1,"dy":-5},{"dx":-2,"dy":-5},{"dx":-2,"dy":-5},{"dx":-3,"dy":-5},{"dx":-2,"dy":-4},{"dx":-5,"dy":-8},{"dx":-4,"dy":-5},{"dx":-4,"dy":-4},{"dx":-5,"dy":-4},{"dx":-6,"dy":-4},{"dx":-7,"dy":-4},{"dx":-11,"dy":-3},{"dx":-7,"dy":-2},{"dx":-7,"dy":-1},{"dx":-8,"dy":-1},{"dx":-7,"dy":-2},{"dx":-6,"dy":0},{"dx":-12,"dy":1},{"dx":-6,"dy":0},{"dx":-5,"dy":1},{"dx":-7,"dy":1},{"dx":-6,"dy":1},{"dx":-5,"dy":2},{"dx":-10,"dy":3},{"dx":-4,"dy":2},{"dx":-5,"dy":2},{"dx":-4,"dy":3},{"dx":-5,"dy":3},{"dx":-1,"dy":0},{"dx":-8,"dy":7},{"dx":-3,"dy":4},{"dx":-3,"dy":3},{"dx":-3,"dy":5},{"dx":-1,"dy":5},{"dx":-1,"dy":5},{"dx":-1,"dy":6},{"dx":0,"dy":0},{"dx":0,"dy":6},{"dx":3,"dy":4},{"dx":0,"dy":1},{"dx":4,"dy":4},{"dx":4,"dy":3},{"dx":5,"dy":3},{"dx":0,"dy":0},{"dx":6,"dy":2},{"dx":7,"dy":3},{"dx":4,"dy":2},{"dx":5,"dy":1},{"dx":5,"dy":2},{"dx":5,"dy":2},{"dx":3,"dy":3},{"dx":7,"dy":5},{"dx":3,"dy":3},{"dx":5,"dy":4},{"dx":2,"dy":3},{"dx":5,"dy":3},{"dx":3,"dy":3},{"dx":7,"dy":8},{"dx":1,"dy":0},{"dx":3,"dy":5},{"dx":2,"dy":4},{"dx":2,"dy":5},{"dx":2,"dy":5},{"dx":1,"dy":5},{"dx":0,"dy":1},{"dx":1,"dy":5},{"dx":0,"dy":6},{"dx":0,"dy":1},{"dx":0,"dy":1},{"dx":-1,"dy":6},{"dx":0,"dy":1},{"dx":-2,"dy":5},{"dx":-2,"dy":6},{"dx":-1,"dy":0},{"dx":-1,"dy":2},{"dx":-2,"dy":4},{"dx":0,"dy":0},{"dx":-2,"dy":1},{"dx":-3,"dy":3},{"dx":-1,"dy":0},{"dx":-1,"dy":1},{"dx":-4,"dy":3},{"dx":-1,"dy":0},{"dx":-4,"dy":2},{"dx":-6,"dy":1},{"dx":-1,"dy":0},{"dx":-5,"dy":0},{"dx":-1,"dy":0},{"dx":-4,"dy":0},{"dx":-1,"dy":0},{"dx":-1,"dy":0},{"dx":-5,"dy":1},{"dx":-1,"dy":0},{"dx":-6,"dy":0},{"dx":-5,"dy":0},{"dx":-4,"dy":-1},{"dx":-6,"dy":-1},{"dx":-1,"dy":-1},{"dx":-5,"dy":-1},{"dx":-4,"dy":-2},{"dx":-1,"dy":0},{"dx":-5,"dy":-3},{"dx":-5,"dy":-2},{"dx":-4,"dy":-3},{"dx":-1,"dy":-1},{"dx":-8,"dy":-7},{"dx":-4,"dy":-2},{"dx":-3,"dy":-4},{"dx":-4,"dy":-4},{"dx":0,"dy":0},{"dx":-1,"dy":-1},{"dx":-1,"dy":-1},{"dx":-1,"dy":-1},{"dx":0,"dy":0},{"dx":-1,"dy":-2},{"dx":0,"dy":-1},{"dx":0,"dy":-1},{"dx":-1,"dy":0},{"dx":0,"dy":0},{"dx":0,"dy":0},{"dx":0,"dy":0},{"dx":0,"dy":0},{"dx":0,"dy":0},{"dx":0,"dy":0},{"dx":0,"dy":0},{"dx":0,"dy":0},{"dx":0,"dy":0},{"dx":0,"dy":0},{"dx":0,"dy":0},{"dx":0,"dy":0},{"dx":1,"dy":3},{"dx":0,"dy":1},{"dx":1,"dy":5},{"dx":2,"dy":6},{"dx":1,"dy":0},{"dx":2,"dy":6},{"dx":1,"dy":0},{"dx":0,"dy":1},{"dx":3,"dy":4},{"dx":0,"dy":1},{"dx":2,"dy":3},{"dx":1,"dy":1},{"dx":1,"dy":2},{"dx":3,"dy":4},{"dx":0,"dy":0},{"dx":2,"dy":1},{"dx":0,"dy":1},{"dx":2,"dy":0},{"dx":1,"dy":1},{"dx":0,"dy":0},{"dx":0,"dy":0},{"dx":0,"dy":0},{"dx":0,"dy":0}],"trial_type":"plugin-moving-dots-2","trial_index":22,"plugin_version":"0.0.1","time_elapsed":103767},{"task":"fixation","rt":877,"stimulus":"<div style=\"font-size:60px;\">+</div>","response":" ","trial_type":"html-keyboard-response","trial_index":23,"plugin_version":"2.1.0","time_elapsed":104646},{"task":"movingdots","control_change":0,"mouse_data":[{"dx":0,"dy":0},{"dx":0,"dy":0},{"dx":0,"dy":0},{"dx":0,"dy":0},{"dx":0,"dy":0},{"dx":0,"dy":0},{"dx":0,"dy":0},{"dx":0,"dy":0},{"dx":0,"dy":0},{"dx":0,"dy":0},{"dx":0,"dy":0},{"dx":0,"dy":0},{"dx":0,"dy":0},{"dx":0,"dy":0},{"dx":0,"dy":0},{"dx":0,"dy":0},{"dx":0,"dy":0},{"dx":0,"dy":0},{"dx":0,"dy":0},{"dx":0,"dy":0},{"dx":0,"dy":0},{"dx":0,"dy":4},{"dx":-3,"dy":5},{"dx":0,"dy":1},{"dx":0,"dy":1},{"dx":-3,"dy":4},{"dx":-1,"dy":1},{"dx":-3,"dy":5},{"dx":-3,"dy":3},{"dx":0,"dy":0},{"dx":-3,"dy":3},{"dx":0,"dy":0},{"dx":-2,"dy":0},{"dx":-1,"dy":1},{"dx":-1,"dy":0},{"dx":-1,"dy":0},{"dx":-1,"dy":0},{"dx":-2,"dy":1},{"dx":-3,"dy":1},{"dx":-2,"dy":0},{"dx":-4,"dy":0},{"dx":-4,"dy":-1},{"dx":-2,"dy":-1},{"dx":-5,"dy":-1},{"dx":-4,"dy":-2},{"dx":-1,"dy":-1},{"dx":-4,"dy":-1},{"dx":-1,"dy":-1},{"dx":-4,"dy":-2},{"dx":-1,"dy":-2},{"dx":-1,"dy":-1},{"dx":-1,"dy":-1},{"dx":-4,"dy":-5},{"dx":0,"dy":-1},{"dx":-1,"dy":-5},{"dx":-2,"dy":-4},{"dx":-1,"dy":-1},{"dx":-1,"dy":-5},{"dx":-3,"dy":-6},{"dx":-1,"dy":-1},{"dx":-1,"dy":-6},{"dx":-1,"dy":0},{"dx":-1,"dy":-6},{"dx":-2,"dy":-5},{"dx":-1,"dy":-7},{"dx":-1,"dy":-5},{"dx":-1,"dy":-6},{"dx":-1,"dy":-7},{"dx":0,"dy":0},{"dx":0,"dy":-5},{"dx":-1,"dy":-6},{"dx":0,"dy":-7},{"dx":0,"dy":0},{"dx":0,"dy":-7},{"dx":0,"dy":-6},{"dx":0,"dy":-4},{"dx":3,"dy":-7},{"dx":3,"dy":-6},{"dx":3,"dy":-5},{"dx":6,"dy":-9},{"dx":4,"dy":-4},{"dx":3,"dy":-4},{"dx":3,"dy":-5},{"dx":0,"dy":-1},{"dx":1,"dy":-1},{"dx":4,"dy":-3},{"dx":4,"dy":-2},{"dx":5,"dy":-2},{"dx":10,"dy":-3},{"dx":1,"dy":0},{"dx":5,"dy":-1},{"dx":4,"dy":-1},{"dx":0,"dy":-1},{"dx":4,"dy":0},{"dx":4,"dy":-1},{"dx":5,"dy":-2},{"dx":6,"dy":-1},{"dx":4,"dy":0},{"dx":8,"dy":0},{"dx":5,"dy":1},{"dx":1,"dy":0},{"dx":6,"dy":1},{"dx":4,"dy":0},{"dx":5,"dy":2},{"dx":10,"dy":2},{"dx":4,"dy":2},{"dx":4,"dy":3},{"dx":3,"dy":4},{"dx":3,"dy":3},{"dx":4,"dy":3},{"dx":6,"dy":8},{"dx":3,"dy":5},{"dx":5,"dy":4},{"dx":5,"dy":6},{"dx":5,"dy":6},{"dx":5,"dy":6},{"dx":9,"dy":12},{"dx":3,"dy":6},{"dx":4,"dy":7},{"dx":3,"dy":5},{"dx":3,"dy":5},{"dx":4,"dy":6},{"dx":8,"dy":8},{"dx":3,"dy":5},{"dx":5,"dy":5},{"dx":4,"dy":4},{"dx":6,"dy":3},{"dx":6,"dy":3},{"dx":13,"dy":5},{"dx":6,"dy":3},{"dx":7,"dy":2},{"dx":7,"dy":2},{"dx":7,"dy":1},{"dx":8,"dy":1},{"dx":11,"dy":-1},{"dx":6,"dy":-1},{"dx":6,"dy":-2},{"dx":5,"dy":-1},{"dx":4,"dy":-2},{"dx":4,"dy":-2},{"dx":6,"dy":-4},{"dx":4,"dy":-3},{"dx":5,"dy":-5},{"dx":5,"dy":-6},{"dx":6,"dy":-6},{"dx":5,"dy":-7},{"dx":6,"dy":-10},{"dx":3,"dy":-6},{"dx":2,"dy":-6},{"dx":3,"dy":-9},{"dx":2,"dy":-7},{"dx":2,"dy":-8},{"dx":1,"dy":-10},{"dx":1,"dy":-7},{"dx":0,"dy":-5},{"dx":0,"dy":-10},{"dx":0,"dy":-6},{"dx":0,"dy":-6},{"dx":-1,"dy":-7},{"dx":-2,"dy":-5},{"dx":-2,"dy":-6},{"dx":-3,"dy":-4},{"dx":-3,"dy":-5},{"dx":-3,"dy":-4},{"dx":-6,"dy":-7},{"dx":-1,"dy":-1},{"dx":-5,"dy":-2},{"dx":-7,"dy":-3},{"dx":-3,"dy":-1},{"dx":-5,"dy":-1},{"dx":-5,"dy":0},{"dx":-10,"dy":0},{"dx":-1,"dy":0},{"dx":-5,"dy":0},{"dx":-6,"dy":0},{"dx":-5,"dy":0},{"dx":-5,"dy":3},{"dx":-5,"dy":3},{"dx":-4,"dy":4},{"dx":0,"dy":0},{"dx":-3,"dy":5},{"dx":-2,"dy":4},{"dx":-3,"dy":6},{"dx":0,"dy":1},{"dx":-2,"dy":5},{"dx":-1,"dy":5},{"dx":-2,"dy":11},{"dx":-1,"dy":5},{"dx":-1,"dy":5},{"dx":-1,"dy":5},{"dx":0,"dy":6},{"dx":0,"dy":5},{"dx":0,"dy":18},{"dx":1,"dy":8},{"dx":0,"dy":9},{"dx":0,"dy":5},{"dx":0,"dy":5},{"dx":0,"dy":5},{"dx":-1,"dy":11},{"dx":-1,"dy":5},{"dx":-2,"dy":7},{"dx":-3,"dy":6},{"dx":-2,"dy":4},{"dx":-2,"dy":5},{"dx":-4,"dy":8},{"dx":-3,"dy":4},{"dx":-3,"dy":4},{"dx":-3,"dy":4},{"dx":-4,"dy":4},{"dx":-4,"dy":4},{"dx":-7,"dy":7},{"dx":-5,"dy":3},{"dx":-4,"dy":2},{"dx":-4,"dy":2},{"dx":-4,"dy":2},{"dx":-4,"dy":2},{"dx":-8,"dy":4},{"dx":-5,"dy":2},{"dx":-6,"dy":1},{"dx":-5,"dy":2},{"dx":-5,"dy":0},{"dx":-4,"dy":1},{"dx":-8,"dy":1},{"dx":-5,"dy":1},{"dx":-6,"dy":0},{"dx":-7,"dy":0},{"dx":-5,"dy":0},{"dx":-5,"dy":0},{"dx":-8,"dy":-1},{"dx":-4,"dy":-1},{"dx":-5,"dy":-1},{"dx":-5,"dy":-2},{"dx":-5,"dy":-1},{"dx":-5,"dy":-2},{"dx":-10,"dy":-4},{"dx":-4,"dy":-2},{"dx":-3,"dy":-3},{"dx":-5,"dy":-4},{"dx":-3,"dy":-3},{"dx":-4,"dy":-5},{"dx":-4,"dy":-6},{"dx":-4,"dy":-7},{"dx":-4,"dy":-6},{"dx":-5,"dy":-8},{"dx":-3,"dy":-4},{"dx":-2,"dy":-5},{"dx":-3,"dy":-5},{"dx":-2,"dy":-4},{"dx":-2,"dy":-5},{"dx":-1,"dy":-3},{"dx":-3,"dy":-12},{"dx":-1,"dy":-5},{"dx":-2,"dy":-6},{"dx":0,"dy":-1},{"dx":-1,"dy":-5},{"dx":0,"dy":-7},{"dx":0,"dy":-5},{"dx":0,"dy":-4},{"dx":0,"dy":-13},{"dx":0,"dy":-6},{"dx":1,"dy":-5},{"dx":1,"dy":-5},{"dx":1,"dy":-5},{"dx":2,"dy":-5},{"dx":2,"dy":-5},{"dx":4,"dy":-9},{"dx":4,"dy":-4},{"dx":2,"dy":-4},{"dx":5,"dy":-5},{"dx":1,"dy":0},{"dx":4,"dy":-2},{"dx":10,"dy":-3},{"dx":4,"dy":-1},{"dx":5,"dy":-1},{"dx":12,"dy":-1},{"dx":4,"dy":0},{"dx":13,"dy":0},{"dx":4,"dy":1},{"dx":4,"dy":1},{"dx":4,"dy":2},{"dx":6,"dy":2},{"dx":4,"dy":0},{"dx":9,"dy":2},{"dx":0,"dy":0},{"dx":5,"dy":1},{"dx":5,"dy":2},{"dx":4,"dy":3},{"dx":0,"dy":0},{"dx":3,"dy":2},{"dx":5,"dy":3},{"dx":1,"dy":0},{"dx":3,"dy":3},{"dx":4,"dy":4},{"dx":4,"dy":3},{"dx":0,"dy":0},{"dx":4,"dy":5},{"dx":3,"dy":4},{"dx":2,"dy":4},{"dx":4,"dy":5},{"dx":0,"dy":1},{"dx":3,"dy":4},{"dx":6,"dy":8},{"dx":3,"dy":3},{"dx":5,"dy":5},{"dx":3,"dy":3},{"dx":4,"dy":2},{"dx":3,"dy":4},{"dx":7,"dy":8},{"dx":4,"dy":3},{"dx":4,"dy":4},{"dx":5,"dy":3},{"dx":4,"dy":4},{"dx":3,"dy":3},{"dx":8,"dy":4},{"dx":5,"dy":2},{"dx":4,"dy":2},{"dx":6,"dy":1},{"dx":6,"dy":0},{"dx":7,"dy":0},{"dx":13,"dy":-3},{"dx":7,"dy":-2},{"dx":8,"dy":-4},{"dx":9,"dy":-3},{"dx":12,"dy":-7},{"dx":6,"dy":-3},{"dx":5,"dy":-5},{"dx":6,"dy":-5},{"dx":6,"dy":-6},{"dx":6,"dy":-4},{"dx":5,"dy":-4},{"dx":2,"dy":-3},{"dx":5,"dy":-5},{"dx":2,"dy":-4},{"dx":2,"dy":-5},{"dx":1,"dy":-5},{"dx":0,"dy":-6},{"dx":0,"dy":-6},{"dx":-5,"dy":-9},{"dx":0,"dy":-1},{"dx":-3,"dy":-4},{"dx":-4,"dy":-5},{"dx":-6,"dy":-7},{"dx":-5,"dy":-4},{"dx":-4,"dy":-4},{"dx":-5,"dy":-3},{"dx":-5,"dy":-3},{"dx":-5,"dy":-2},{"dx":-8,"dy":-2},{"dx":0,"dy":0},{"dx":-5,"dy":-1},{"dx":-6,"dy":0},{"dx":-6,"dy":1},{"dx":-5,"dy":3},{"dx":-13,"dy":7},{"dx":-5,"dy":4},{"dx":-3,"dy":3},{"dx":-4,"dy":4},{"dx":-2,"dy":3},{"dx":-7,"dy":8},{"dx":-4,"dy":5},{"dx":-7,"dy":8},{"dx":-8,"dy":8},{"dx":-7,"dy":8},{"dx":-5,"dy":6},{"dx":-7,"dy":6},{"dx":-12,"dy":10},{"dx":-4,"dy":5},{"dx":-5,"dy":3},{"dx":-7,"dy":6},{"dx":-9,"dy":9},{"dx":-8,"dy":7},{"dx":-11,"dy":11},{"dx":-4,"dy":4},{"dx":-6,"dy":5},{"dx":-11,"dy":7},{"dx":-5,"dy":4},{"dx":-6,"dy":3},{"dx":-5,"dy":4},{"dx":-6,"dy":4},{"dx":-7,"dy":3},{"dx":-14,"dy":7},{"dx":-6,"dy":3},{"dx":-7,"dy":2},{"dx":-6,"dy":1},{"dx":-4,"dy":1},{"dx":-6,"dy":1},{"dx":-12,"dy":0},{"dx":-6,"dy":0},{"dx":-7,"dy":0},{"dx":-6,"dy":0},{"dx":-5,"dy":-1},{"dx":-6,"dy":-1},{"dx":-8,"dy":-1},{"dx":-4,"dy":-1},{"dx":-6,"dy":-2},{"dx":-6,"dy":-3},{"dx":-4,"dy":-3},{"dx":-5,"dy":-2},{"dx":-3,"dy":-3},{"dx":-4,"dy":-6},{"dx":-3,"dy":-5},{"dx":-4,"dy":-15},{"dx":-1,"dy":-7},{"dx":-1,"dy":-9},{"dx":-1,"dy":-5},{"dx":0,"dy":-6},{"dx":-2,"dy":-7},{"dx":-1,"dy":-5},{"dx":0,"dy":-4},{"dx":0,"dy":-12},{"dx":0,"dy":-1},{"dx":1,"dy":-7},{"dx":2,"dy":-4},{"dx":2,"dy":-6},{"dx":0,"dy":0},{"dx":3,"dy":-5},{"dx":4,"dy":-6},{"dx":4,"dy":-4},{"dx":5,"dy":-5},{"dx":5,"dy":-5},{"dx":4,"dy":-3},{"dx":1,"dy":-1},{"dx":4,"dy":-2},{"dx":5,"dy":-3},{"dx":4,"dy":-2},{"dx":9,"dy":-5},{"dx":1,"dy":0},{"dx":4,"dy":-2},{"dx":5,"dy":-1},{"dx":1,"dy":0},{"dx":4,"dy":0},{"dx":4,"dy":0},{"dx":6,"dy":1},{"dx":0,"dy":0},{"dx":5,"dy":1},{"dx":3,"dy":3},{"dx":5,"dy":2},{"dx":8,"dy":8},{"dx":3,"dy":3},{"dx":3,"dy":5},{"dx":3,"dy":5},{"dx":3,"dy":4},{"dx":3,"dy":6},{"dx":3,"dy":9},{"dx":1,"dy":3},{"dx":2,"dy":6},{"dx":2,"dy":6},{"dx":1,"dy":5},{"dx":2,"dy":5},{"dx":2,"dy":12},{"dx":1,"dy":5},{"dx":2,"dy":5}],"trial_type":"plugin-moving-dots-2","trial_index":24,"plugin_version":"0.0.1","time_elapsed":112150},{"task":"fixation","rt":1247,"stimulus":"<div style=\"font-size:60px;\">+</div>","response":" ","trial_type":"html-keyboard-response","trial_index":25,"plugin_version":"2.1.0","time_elapsed":113398},{"task":"movingdots","control_change":0,"mouse_data":[{"dx":0,"dy":0},{"dx":0,"dy":0},{"dx":0,"dy":0},{"dx":0,"dy":0},{"dx":0,"dy":0},{"dx":0,"dy":0},{"dx":0,"dy":0},{"dx":0,"dy":0},{"dx":0,"dy":0},{"dx":0,"dy":0},{"dx":0,"dy":0},{"dx":0,"dy":0},{"dx":0,"dy":0},{"dx":0,"dy":0},{"dx":0,"dy":0},{"dx":0,"dy":0},{"dx":0,"dy":0},{"dx":1,"dy":0},{"dx":1,"dy":0},{"dx":1,"dy":0},{"dx":2,"dy":0},{"dx":1,"dy":0},{"dx":4,"dy":0},{"dx":0,"dy":0},{"dx":5,"dy":-2},{"dx":1,"dy":0},{"dx":4,"dy":-2},{"dx":4,"dy":-3},{"dx":1,"dy":0},{"dx":3,"dy":-2},{"dx":1,"dy":-2},{"dx":3,"dy":-2},{"dx":1,"dy":-1},{"dx":4,"dy":-4},{"dx":4,"dy":-3},{"dx":4,"dy":-4},{"dx":3,"dy":-3},{"dx":5,"dy":-4},{"dx":0,"dy":0},{"dx":3,"dy":-3},{"dx":4,"dy":-4},{"dx":3,"dy":-6},{"dx":5,"dy":-9},{"dx":3,"dy":-3},{"dx":2,"dy":-5},{"dx":2,"dy":-5},{"dx":1,"dy":-1},{"dx":1,"dy":-4},{"dx":3,"dy":-7},{"dx":1,"dy":-5},{"dx":1,"dy":-6},{"dx":1,"dy":-10},{"dx":0,"dy":-2},{"dx":1,"dy":-6},{"dx":0,"dy":-12},{"dx":0,"dy":-5},{"dx":0,"dy":-8},{"dx":0,"dy":-8},{"dx":0,"dy":-4},{"dx":-2,"dy":-6},{"dx":-2,"dy":-8},{"dx":-1,"dy":-4},{"dx":-3,"dy":-5},{"dx":-1,"dy":-6},{"dx":-5,"dy":-11},{"dx":-2,"dy":-5},{"dx":-4,"dy":-4},{"dx":-3,"dy":-4},{"dx":-4,"dy":-4},{"dx":-8,"dy":-4},{"dx":-4,"dy":-3},{"dx":-4,"dy":-3},{"dx":-5,"dy":-4},{"dx":-5,"dy":-3},{"dx":-4,"dy":-2},{"dx":-11,"dy":-4},{"dx":-6,"dy":-1},{"dx":-4,"dy":-1},{"dx":-6,"dy":0},{"dx":-5,"dy":0},{"dx":-5,"dy":0},{"dx":-5,"dy":0},{"dx":-5,"dy":1},{"dx":-6,"dy":0},{"dx":-5,"dy":3},{"dx":-4,"dy":2},{"dx":-4,"dy":2},{"dx":-7,"dy":5},{"dx":-3,"dy":3},{"dx":-4,"dy":3},{"dx":-4,"dy":2},{"dx":-4,"dy":5},{"dx":-3,"dy":4},{"dx":-2,"dy":4},{"dx":-2,"dy":4},{"dx":-3,"dy":6},{"dx":-1,"dy":1},{"dx":-3,"dy":7},{"dx":-1,"dy":5},{"dx":-2,"dy":6},{"dx":0,"dy":6},{"dx":0,"dy":1},{"dx":0,"dy":6},{"dx":2,"dy":4},{"dx":0,"dy":1},{"dx":3,"dy":4},{"dx":8,"dy":7},{"dx":3,"dy":3},{"dx":4,"dy":2},{"dx":4,"dy":3},{"dx":4,"dy":1},{"dx":4,"dy":2},{"dx":9,"dy":3},{"dx":5,"dy":0},{"dx":5,"dy":0},{"dx":3,"dy":0},{"dx":6,"dy":0},{"dx":5,"dy":0},{"dx":9,"dy":0},{"dx":1,"dy":0},{"dx":5,"dy":1},{"dx":5,"dy":1},{"dx":1,"dy":0},{"dx":4,"dy":1},{"dx":4,"dy":2},{"dx":5,"dy":1},{"dx":5,"dy":2},{"dx":4,"dy":3},{"dx":4,"dy":2},{"dx":4,"dy":4},{"dx":4,"dy":4},{"dx":3,"dy":5},{"dx":2,"dy":5},{"dx":3,"dy":11},{"dx":1,"dy":5},{"dx":2,"dy":7},{"dx":1,"dy":10},{"dx":1,"dy":8},{"dx":1,"dy":7},{"dx":0,"dy":13},{"dx":0,"dy":7},{"dx":0,"dy":6},{"dx":0,"dy":5},{"dx":0,"dy":7},{"dx":0,"dy":0},{"dx":-4,"dy":12},{"dx":-2,"dy":5},{"dx":-3,"dy":6},{"dx":-5,"dy":8},{"dx":-3,"dy":7},{"dx":-3,"dy":4},{"dx":-6,"dy":9},{"dx":-3,"dy":3},{"dx":-4,"dy":3},{"dx":-4,"dy":3},{"dx":-3,"dy":3},{"dx":-5,"dy":4},{"dx":-5,"dy":