[{"success":true,"rt":6995,"trial_type":"fullscreen","trial_index":0,"plugin_version":"2.1.0","time_elapsed":8046},{"task":"fixation","rt":2777,"stimulus":"<div style=\"font-size:60px;\">+</div>","response":" ","trial_type":"html-keyboard-response","trial_index":1,"plugin_version":"2.1.0","time_elapsed":10827},{"task":"movingdots","control_change":0,"mouse_data":[{"dx":0,"dy":0},{"dx":0,"dy":0},{"dx":0,"dy":0},{"dx":0,"dy":0},{"dx":0,"dy":0},{"dx":0,"dy":0},{"dx":0,"dy":0},{"dx":0,"dy":0},{"dx":0,"dy":0},{"dx":0,"dy":0},{"dx":0,"dy":0},{"dx":0,"dy":0},{"dx":0,"dy":0},{"dx":0,"dy":0},{"dx":0,"dy":0},{"dx":0,"dy":0},{"dx":0,"dy":0},{"dx":0,"dy":0},{"dx":0,"dy":0},{"dx":0,"dy":0},{"dx":0,"dy":0},{"dx":0,"dy":0},{"dx":0,"dy":0},{"dx":0,"dy":0},{"dx":0,"dy":0},{"dx":0,"dy":0},{"dx":0,"dy":0},{"dx":0,"dy":0},{"dx":0,"dy":0},{"dx":0,"dy":0},{"dx":0,"dy":0},{"dx":-1,"dy":0},{"dx":-4,"dy":1},{"dx":-4,"dy":2},{"dx":0,"dy":0},{"dx":0,"dy":0},{"dx":0,"dy":0},{"dx":0,"dy":0},{"dx":0,"dy":0},{"dx":0,"dy":0},{"dx":0,"dy":0},{"dx":0,"dy":0},{"dx":0,"dy":0},{"dx":0,"dy":0},{"dx":0,"dy":0},{"dx":0,"dy":0},{"dx":0,"dy":0},{"dx":0,"dy":0},{"dx":0,"dy":0},{"dx":0,"dy":0},{"dx":0,"dy":0},{"dx":0,"dy":0},{"dx":0,"dy":0},{"dx":0,"dy":0},{"dx":0,"dy":0},{"dx":0,"dy":0},{"dx":0,"dy":0},{"dx":0,"dy":0},{"dx":0,"dy":0},{"dx":0,"dy":0},{"dx":0,"dy":0},{"dx":0,"dy":0},{"dx":0,"dy":0},{"dx":0,"dy":0},{"dx":0,"dy":0},{"dx":0,"dy":0},{"dx":0,"dy":0},{"dx":0,"dy":0},{"dx":0,"dy":0},{"dx":0,"dy":0},{"dx":0,"dy":0},{"dx":0,"dy":0},{"dx":0,"dy":0},{"dx":0,"dy":0},{"dx":0,"dy":0},{"dx":0,"dy":0},{"dx":0,"dy":0},{"dx":0,"dy":0},{"dx":0,"dy":0},{"dx":0,"dy":0},{"dx":0,"dy":0},{"dx":0,"dy":0},{"dx":0,"dy":0},{"dx":0,"dy":0},{"dx":0,"dy":0},{"dx":0,"dy":0},{"dx":0,"dy":0},{"dx":0,"dy":0},{"dx":0,"dy":0},{"dx":0,"dy":0},{"dx":0,"dy":0},{"dx":0,"dy":0},{"dx":0,"dy":0},{"dx":0,"dy":0},{"dx":0,"dy":0},{"dx":0,"dy":0},{"dx":0,"dy":0},{"dx":0,"dy":0},{"dx":0,"dy":0},{"dx":0,"dy":0},{"dx":0,"dy":0},{"dx":0,"dy":0},{"dx":0,"dy":0},{"dx":0,"dy":0},{"dx":0,"dy":0},{"dx":0,"dy":0},{"dx":0,"dy":0},{"dx":0,"dy":0},{"dx":0,"dy":0},{"dx":0,"dy":0},{"dx":0,"dy":0},{"dx":0,"dy":0},{"dx":0,"dy":0},{"dx":0,"dy":0},{"dx":0,"dy":0},{"dx":0,"dy":0},{"dx":0,"dy":0},{"dx":0,"dy":0},{"dx":0,"dy":0},{"dx":0,"dy":0},{"dx":0,"dy":0},{"dx":0,"dy":0},{"dx":0,"dy":0},{"dx":0,"dy":0},{"dx":0,"dy":0},{"dx":0,"dy":0},{"dx":0,"dy":0},{"dx":0,"dy":0},{"dx":0,"dy":0},{"dx":0,"dy":0},{"dx":0,"dy":0},{"dx":0,"dy":0},{"dx":0,"dy":0},{"dx":0,"dy":0},{"dx":0,"dy":0},{"dx":0,"dy":0},{"dx":0,"dy":0},{"dx":0,"dy":0},{"dx":0,"dy":0},{"dx":0,"dy":0},{"dx":4,"dy":-1},{"dx":0,"dy":0},{"dx":1,"dy":-1},{"dx":0,"dy":0},{"dx":1,"dy":-1},{"dx":0,"dy":0},{"dx":0,"dy":0},{"dx":0,"dy":-1},{"dx":11,"dy":-14},{"dx":5,"dy":-5},{"dx":3,"dy":-5},{"dx":0,"dy":-2},{"dx":1,"dy":0},{"dx":0,"dy":-1},{"dx":1,"dy":-1},{"dx":0,"dy":0},{"dx":0,"dy":-1},{"dx":0,"dy":-3},{"dx":0,"dy":-1},{"dx":1,"dy":-1},{"dx":10,"dy":-12},{"dx":4,"dy":-5},{"dx":4,"dy":-6},{"dx":2,"dy":-5},{"dx":2,"dy":-5},{"dx":1,"dy":-6},{"dx":0,"dy":-6},{"dx":0,"dy":0},{"dx":0,"dy":-2},{"dx":0,"dy":-5},{"dx":0,"dy":-1},{"dx":0,"dy":-2},{"dx":-2,"dy":-5},{"dx":-3,"dy":-5},{"dx":-3,"dy":-3},{"dx":-5,"dy":-4},{"dx":-4,"dy":-3},{"dx":-5,"dy":-3},{"dx":-6,"dy":-4},{"dx":-12,"dy":-4},{"dx":-7,"dy":-3},{"dx":-5,"dy":-2},{"dx":-9,"dy":-5},{"dx":-6,"dy":-2},{"dx":-8,"dy":-2},{"dx":-8,"dy":-1},{"dx":-5,"dy":-1},{"dx":-4,"dy":-1},{"dx":-11,"dy":-1},{"dx":-10,"dy":0},{"dx":-6,"dy":0},{"dx":-12,"dy":0},{"dx":-5,"dy":1},{"dx":-6,"dy":0},{"dx":-7,"dy":1},{"dx":-5,"dy":0},{"dx":-6,"dy":1},{"dx":-13,"dy":3},{"dx":-6,"dy":2},{"dx":-6,"dy":2},{"dx":-8,"dy":3},{"dx":-6,"dy":4},{"dx":-10,"dy":8},{"dx":-10,"dy":8},{"dx":-5,"dy":4},{"dx":-4,"dy":3},{"dx":-4,"dy":3},{"dx":-5,"dy":5},{"dx":-6,"dy":5},{"dx":-12,"dy":10},{"dx":-4,"dy":4},{"dx":-4,"dy":3},{"dx":-4,"dy":3},{"dx":-5,"dy":3},{"dx":-5,"dy":3},{"dx":-11,"dy":6},{"dx":-6,"dy":4},{"dx":-6,"dy":4},{"dx":-4,"dy":3},{"dx":-4,"dy":4},{"dx":-4,"dy":3},{"dx":-4,"dy":5},{"dx":-2,"dy":3},{"dx":0,"dy":2},{"dx":0,"dy":1},{"dx":-1,"dy":5},{"dx":0,"dy":6},{"dx":2,"dy":7},{"dx":3,"dy":5},{"dx":4,"dy":5},{"dx":6,"dy":8},{"dx":4,"dy":4},{"dx":4,"dy":5},{"dx":4,"dy":3},{"dx":5,"dy":4},{"dx":5,"dy":4},{"dx":4,"dy":4},{"dx":3,"dy":4},{"dx":5,"dy":3},{"dx":4,"dy":2},{"dx":5,"dy":2},{"dx":6,"dy":3},{"dx":5,"dy":3},{"dx":0,"dy":0},{"dx":4,"dy":2},{"dx":5,"dy":2},{"dx":0,"dy":0},{"dx":6,"dy":2},{"dx":5,"dy":2},{"dx":5,"dy":1},{"dx":11,"dy":1},{"dx":15,"dy":1},{"dx":5,"dy":0},{"dx":6,"dy":0},{"dx":13,"dy":0},{"dx":9,"dy":0},{"dx":7,"dy":0},{"dx":2,"dy":1},{"dx":1,"dy":0},{"dx":0,"dy":0},{"dx":0,"dy":0},{"dx":-4,"dy":3},{"dx":-7,"dy":2},{"dx":-16,"dy":1},{"dx":-8,"dy":0},{"dx":-6,"dy":0},{"dx":-7,"dy":0},{"dx":-6,"dy":-1},{"dx":-6,"dy":-2},{"dx":-11,"dy":-1},{"dx":-3,"dy":-1},{"dx":-2,"dy":0},{"dx":-9,"dy":-3},{"dx":-1,"dy":0},{"dx":-6,"dy":-2},{"dx":-8,"dy":-3},{"dx":0,"dy":0},{"dx":-6,"dy":-1},{"dx":-4,"dy":-3},{"dx":-6,"dy":-3},{"dx":0,"dy":0},{"dx":-3,"dy":-4},{"dx":-1,"dy":-1},{"dx":-1,"dy":-1},{"dx":-1,"dy":-2},{"dx":0,"dy":-1},{"dx":-1,"dy":-1},{"dx":-2,"dy":-6},{"dx":-2,"dy":-5},{"dx":-4,"dy":-5},{"dx":-4,"dy":-4},{"dx":-4,"dy":-3},{"dx":-4,"dy":-2},{"dx":-5,"dy":-1},{"dx":0,"dy":0},{"dx":-1,"dy":-1},{"dx":-5,"dy":0},{"dx":-2,"dy":0},{"dx":-1,"dy":0},{"dx":-1,"dy":0},{"dx":-5,"dy":1},{"dx":-1,"dy":1},{"dx":-1,"dy":1},{"dx":-3,"dy":4},{"dx":-1,"dy":6},{"dx":0,"dy":5},{"dx":-1,"dy":1},{"dx":0,"dy":5},{"dx":0,"dy":1},{"dx":-1,"dy":6},{"dx":0,"dy":0},{"dx":0,"dy":1},{"dx":0,"dy":1},{"dx":0,"dy":2},{"dx":0,"dy":4},{"dx":0,"dy":1},{"dx":0,"dy":0},{"dx":0,"dy":1},{"dx":0,"dy":0},{"dx":1,"dy":0},{"dx":0,"dy":1},{"dx":0,"dy":0},{"dx":0,"dy":0},{"dx":0,"dy":0},{"dx":0,"dy":0},{"dx":0,"dy":0},{"dx":0,"dy":0},{"dx":0,"dy":0},{"dx":0,"dy":0},{"dx":0,"dy":0},{"dx":0,"dy":0},{"dx":0,"dy":0},{"dx":0,"dy":0},{"dx":0,"dy":0},{"dx":0,"dy":0},{"dx":0,"dy":0},{"dx":0,"dy":0},{"dx":0,"dy":0},{"dx":0,"dy":0},{"dx":0,"dy":0},{"dx":0,"dy":6},{"dx":0,"dy":5},{"dx":1,"dy":5},{"dx":0,"dy":5},{"dx":0,"dy":6},{"dx":1,"dy":6},{"dx":1,"dy":6},{"dx":1,"dy":6},{"dx":1,"dy":6},{"dx":2,"dy":5},{"dx":0,"dy":0},{"dx":3,"dy":5},{"dx":1,"dy":1},{"dx":2,"dy":3},{"dx":1,"dy":1},{"dx":3,"dy":3},{"dx":1,"dy":1},{"dx":3,"dy":3},{"dx":1,"dy":0},{"dx":4,"dy":2},{"dx":6,"dy":2},{"dx":4,"dy":2},{"dx":4,"dy":2},{"dx":7,"dy":1},{"dx":7,"dy":2},{"dx":5,"dy":1},{"dx":9,"dy":0},{"dx":6,"dy":1},{"dx":4,"dy":0},{"dx":5,"dy":0},{"dx":4,"dy":0},{"dx":6,"dy":1},{"dx":5,"dy":0},{"dx":6,"dy":0},{"dx":6,"dy":0},{"dx":12,"dy":-2},{"dx":7,"dy":-2},{"dx":6,"dy":-1},{"dx":9,"dy":-3},{"dx":5,"dy":-2},{"dx":8,"dy":-2},{"dx":8,"dy":-4},{"dx":7,"dy":-5},{"dx":4,"dy":-3},{"dx":4,"dy":-3},{"dx":1,"dy":0},{"dx":0,"dy":0},{"dx":4,"dy":-3},{"dx":1,"dy":0},{"dx":0,"dy":-1},{"dx":1,"dy":0},{"dx":0,"dy":0},{"dx":0,"dy":0},{"dx":0,"dy":0},{"dx":0,"dy":0},{"dx":0,"dy":0},{"dx":1,"dy":1},{"dx":3,"dy":3},{"dx":3,"dy":5},{"dx":0,"dy":0},{"dx":3,"dy":3},{"dx":1,"dy":0},{"dx":3,"dy":4},{"dx":4,"dy":3},{"dx":0,"dy":1},{"dx":3,"dy":4},{"dx":3,"dy":3},{"dx":0,"dy":1},{"dx":7,"dy":6},{"dx":4,"dy":3},{"dx":3,"dy":2},{"dx":5,"dy":3},{"dx":4,"dy":2},{"dx":4,"dy":2},{"dx":7,"dy":1},{"dx":5,"dy":1},{"dx":5,"dy":1},{"dx":6,"dy":0},{"dx":6,"dy":1},{"dx":6,"dy":0},{"dx":4,"dy":0},{"dx":10,"dy":-2},{"dx":7,"dy":0},{"dx":6,"dy":-1},{"dx":13,"dy":-3},{"dx":4,"dy":-1},{"dx":5,"dy":-2},{"dx":8,"dy":-2},{"dx":7,"dy":-3},{"dx":6,"dy":-3},{"dx":5,"dy":-1},{"dx":1,"dy":-1},{"dx":1,"dy":0},{"dx":1,"dy":-1},{"dx":0,"dy":0},{"dx":1,"dy":0},{"dx":1,"dy":-1},{"dx":0,"dy":-1},{"dx":3,"dy":-4},{"dx":2,"dy":-6},{"dx":3,"dy":-5},{"dx":4,"dy":-6},{"dx":4,"dy":-4},{"dx":3,"dy":-3},{"dx":4,"dy":-4},{"dx":8,"dy":-7},{"dx":5,"dy":-4},{"dx":7,"dy":-6},{"dx":13,"dy":-13},{"dx":6,"dy":-6},{"dx":4,"dy":-6},{"dx":2,"dy":-4}],"trial_type":"plugin-moving-dots-2","trial_index":2,"plugin_version":"0.0.1","time_elapsed":18337},{"task":"fixation","rt":2631,"stimulus":"<div style=\"font-size:60px;\">+</div>","response":" ","trial_type":"html-keyboard-response","trial_index":3,"plugin_version":"2.1.0","time_elapsed":20969},{"task":"movingdots","control_change":0,"mouse_data":[{"dx":0,"dy":0},{"dx":0,"dy":0},{"dx":0,"dy":0},{"dx":0,"dy":0},{"dx":0,"dy":0},{"dx":0,"dy":0},{"dx":0,"dy":0},{"dx":0,"dy":0},{"dx":0,"dy":0},{"dx":0,"dy":0},{"dx":0,"dy":0},{"dx":0,"dy":0},{"dx":0,"dy":0},{"dx":0,"dy":0},{"dx":0,"dy":0},{"dx":0,"dy":0},{"dx":0,"dy":0},{"dx":0,"dy":0},{"dx":0,"dy":0},{"dx":0,"dy":0},{"dx":0,"dy":0},{"dx":0,"dy":0},{"dx":0,"dy":0},{"dx":0,"dy":0},{"dx":0,"dy":0},{"dx":0,"dy":0},{"dx":0,"dy":0},{"dx":0,"dy":0},{"dx":0,"dy":0},{"dx":0,"dy":0},{"dx":3,"dy":0},{"dx":1,"dy":1},{"dx":5,"dy":1},{"dx":7,"dy":2},{"dx":4,"dy":2},{"dx":1,"dy":0},{"dx":9,"dy":0},{"dx":5,"dy":0},{"dx":0,"dy":0},{"dx":5,"dy":-1},{"dx":6,"dy":-2},{"dx":0,"dy":0},{"dx":0,"dy":0},{"dx":1,"dy":0},{"dx":1,"dy":-1},{"dx":7,"dy":-3},{"dx":6,"dy":-4},{"dx":3,"dy":-3},{"dx":1,"dy":0},{"dx":0,"dy":-1},{"dx":1,"dy":0},{"dx":12,"dy":-10},{"dx":8,"dy":-7},{"dx":3,"dy":-4},{"dx":0,"dy":0},{"dx":1,"dy":-1},{"dx":1,"dy":0},{"dx":0,"dy":0},{"dx":0,"dy":-1},{"dx":0,"dy":0},{"dx":0,"dy":0},{"dx":1,"dy":0},{"dx":0,"dy":-1},{"dx":4,"dy":-3},{"dx":16,"dy":-10},{"dx":5,"dy":-3},{"dx":8,"dy":-5},{"dx":6,"dy":-3},{"dx":5,"dy":-3},{"dx":4,"dy":-3},{"dx":0,"dy":-1},{"dx":1,"dy":0},{"dx":0,"dy":-1},{"dx":1,"dy":0},{"dx":0,"dy":0},{"dx":6,"dy":-4},{"dx":12,"dy":-5},{"dx":7,"dy":-2},{"dx":5,"dy":-1},{"dx":5,"dy":-1},{"dx":1,"dy":-1},{"dx":4,"dy":0},{"dx":5,"dy":-1},{"dx":0,"dy":0},{"dx":4,"dy":0},{"dx":11,"dy":0},{"dx":4,"dy":1},{"dx":6,"dy":0},{"dx":5,"dy":1},{"dx":1,"dy":0},{"dx":3,"dy":0},{"dx":2,"dy":1},{"dx":5,"dy":1},{"dx":0,"dy":0},{"dx":1,"dy":0},{"dx":4,"dy":2},{"dx":1,"dy":0},{"dx":4,"dy":3},{"dx":4,"dy":2},{"dx":0,"dy":0},{"dx":5,"dy":3},{"dx":3,"dy":3},{"dx":3,"dy":4},{"dx":3,"dy":4},{"dx":0,"dy":0},{"dx":3,"dy":4},{"dx":0,"dy":1},{"dx":1,"dy":1},{"dx":0,"dy":1},{"dx":0,"dy":0},{"dx":1,"dy":0},{"dx":0,"dy":0},{"dx":0,"dy":0},{"dx":0,"dy":0},{"dx":0,"dy":0},{"dx":0,"dy":0},{"dx":0,"dy":0},{"dx":0,"dy":0},{"dx":0,"dy":0},{"dx":0,"dy":0},{"dx":0,"dy":0},{"dx":0,"dy":0},{"dx":0,"dy":0},{"dx":0,"dy":0},{"dx":4,"dy":-3},{"dx":5,"dy":-4},{"dx":4,"dy":-3},{"dx":4,"dy":-4},{"dx":0,"dy":-1},{"dx":1,"dy":-2},{"dx":1,"dy":-4},{"dx":0,"dy":-7},{"dx":0,"dy":-4},{"dx":-2,"dy":-6},{"dx":0,"dy":-1},{"dx":-2,"dy":-4},{"dx":-3,"dy":-6},{"dx":-1,"dy":0},{"dx":-3,"dy":-5},{"dx":-1,"dy":-1},{"dx":-1,"dy":-1},{"dx":-1,"dy":0},{"dx":-3,"dy":-3},{"dx":-4,"dy":-2},{"dx":-4,"dy":-2},{"dx":-5,"dy":0},{"dx":-7,"dy":0},{"dx":-5,"dy":0},{"dx":-5,"dy":0},{"dx":-5,"dy":3},{"dx":-1,"dy":0},{"dx":0,"dy":0},{"dx":-4,"dy":4},{"dx":0,"dy":1},{"dx":-1,"dy":5},{"dx":-1,"dy":2},{"dx":-2,"dy":5},{"dx":0,"dy":5},{"dx":-1,"dy":6},{"dx":0,"dy":0},{"dx":0,"dy":2},{"dx":0,"dy":4},{"dx":0,"dy":2},{"dx":1,"dy":4},{"dx":2,"dy":4},{"dx":2,"dy":4},{"dx":1,"dy":0},{"dx":2,"dy":5},{"dx":1,"dy":0},{"dx":2,"dy":6},{"dx":2,"dy":4},{"dx":0,"dy":1},{"dx":1,"dy":5},{"dx":1,"dy":6},{"dx":0,"dy":1},{"dx":0,"dy":6},{"dx":0,"dy":5},{"dx":1,"dy":6},{"dx":0,"dy":5},{"dx":0,"dy":6},{"dx":0,"dy":5},{"dx":0,"dy":1},{"dx":0,"dy":7},{"dx":0,"dy":1},{"dx":-1,"dy":6},{"dx":-3,"dy":12},{"dx":-3,"dy":6},{"dx":-1,"dy":4},{"dx":-1,"dy":1},{"dx":-1,"dy":4},{"dx":-1,"dy":0},{"dx":-1,"dy":7},{"dx":-1,"dy":0},{"dx":-2,"dy":5},{"dx":-2,"dy":4},{"dx":-3,"dy":3},{"dx":0,"dy":1},{"dx":-2,"dy":1},{"dx":-3,"dy":3},{"dx":-1,"dy":1},{"dx":-4,"dy":3},{"dx":-1,"dy":1},{"dx":-4,"dy":1},{"dx":0,"dy":0},{"dx":-4,"dy":0},{"dx":-6,"dy":-1},{"dx":-5,"dy":-3},{"dx":0,"dy":0},{"dx":-1,"dy":-1},{"dx":-1,"dy":-2},{"dx":-2,"dy":-4},{"dx":-1,"dy":0},{"dx":-1,"dy":-2},{"dx":0,"dy":-1},{"dx":-1,"dy":-1},{"dx":0,"dy":0},{"dx":0,"dy":-1},{"dx":2,"dy":-5},{"dx":0,"dy":0},{"dx":1,"dy":-1},{"dx":3,"dy":-1},{"dx":1,"dy":-1},{"dx":2,"dy":0},{"dx":3,"dy":0},{"dx":6,"dy":0},{"dx":0,"dy":1},{"dx":5,"dy":2},{"dx":1,"dy":1},{"dx":3,"dy":2},{"dx":5,"dy":3},{"dx":1,"dy":0},{"dx":9,"dy":5},{"dx":3,"dy":3},{"dx":3,"dy":3},{"dx":5,"dy":3},{"dx":3,"dy":3},{"dx":5,"dy":4},{"dx":4,"dy":3},{"dx":1,"dy":0},{"dx":3,"dy":1},{"dx":5,"dy":2},{"dx":0,"dy":0},{"dx":5,"dy":2},{"dx":4,"dy":3},{"dx":1,"dy":0},{"dx":4,"dy":2},{"dx":5,"dy":2},{"dx":5,"dy":0},{"dx":6,"dy":1},{"dx":9,"dy":1},{"dx":4,"dy":1},{"dx":5,"dy":0},{"dx":5,"dy":0},{"dx":5,"dy":-1},{"dx":5,"dy":-1},{"dx":7,"dy":-2},{"dx":3,"dy":-2},{"dx":5,"dy":-2},{"dx":4,"dy":-2},{"dx":4,"dy":-2},{"dx":4,"dy":-3},{"dx":4,"dy":-4},{"dx":3,"dy":-3},{"dx":3,"dy":-3},{"dx":4,"dy":-3},{"dx":3,"dy":-4},{"dx":1,"dy":-1},{"dx":1,"dy":-6},{"dx":0,"dy":0},{"dx":0,"dy":0},{"dx":0,"dy":0},{"dx":0,"dy":0},{"dx":0,"dy":0},{"dx":0,"dy":0},{"dx":0,"dy":0},{"dx":0,"dy":0},{"dx":0,"dy":0},{"dx":0,"dy":0},{"dx":0,"dy":0},{"dx":0,"dy":0},{"dx":0,"dy":0},{"dx":0,"dy":0},{"dx":0,"dy":0},{"dx":0,"dy":0},{"dx":-3,"dy":-2},{"dx":-4,"dy":-3},{"dx":-13,"dy":-3},{"dx":-8,"dy":-1},{"dx":-6,"dy":0},{"dx":-5,"dy":0},{"dx":-4,"dy":0},{"dx":-1,"dy":1},{"dx":-5,"dy":2},{"dx":-1,"dy":1},{"dx":-3,"dy":3},{"dx":-4,"dy":3},{"dx":-1,"dy":1},{"dx":-1,"dy":4},{"dx":2,"dy":5},{"dx":6,"dy":4},{"dx":5,"dy":3},{"dx":6,"dy":3},{"dx":8,"dy":3},{"dx":7,"dy":2},{"dx":10,"dy":3},{"dx":6,"dy":1},{"dx":4,"dy":1},{"dx":5,"dy":1},{"dx":4,"dy":1},{"dx":5,"dy":2},{"dx":7,"dy":5},{"dx":4,"dy":3},{"dx":3,"dy":3},{"dx":3,"dy":3},{"dx":4,"dy":5},{"dx":3,"dy":5},{"dx":5,"dy":8},{"dx":0,"dy":1},{"dx":2,"dy":5},{"dx":2,"dy":6},{"dx":1,"dy":6},{"dx":0,"dy":6},{"dx":1,"dy":5},{"dx":0,"dy":6},{"dx":-2,"dy":5},{"dx":-3,"dy":9},{"dx":-2,"dy":6},{"dx":-3,"dy":4},{"dx":-2,"dy":4},{"dx":-3,"dy":6},{"dx":-1,"dy":0},{"dx":-3,"dy":5},{"dx":-1,"dy":1},{"dx":-2,"dy":1},{"dx":-5,"dy":3},{"dx":0,"dy":1},{"dx":-1,"dy":0},{"dx":-2,"dy":1},{"dx":0,"dy":1},{"dx":-5,"dy":4},{"dx":-1,"dy":1},{"dx":-3,"dy":2},{"dx":0,"dy":0},{"dx":-1,"dy":0},{"dx":-2,"dy":0},{"dx":-4,"dy":-1},{"dx":-1,"dy":0},{"dx":-1,"dy":0},{"dx":-1,"dy":-1},{"dx":-1,"dy":0},{"dx":-2,"dy":-1},{"dx":0,"dy":-2},{"dx":-2,"dy":-1},{"dx":0,"dy":-2},{"dx":-1,"dy":-1},{"dx":0,"dy":-1},{"dx":0,"dy":-1},{"dx":0,"dy":-1},{"dx":0,"dy":-1},{"dx":0,"dy":0},{"dx":0,"dy":0},{"dx":0,"dy":-1},{"dx":0,"dy":0},{"dx":0,"dy":0},{"dx":1,"dy":-2},{"dx":4,"dy":-1},{"dx":0,"dy":-1},{"dx":0,"dy":0},{"dx":1,"dy":0},{"dx":0,"dy":0},{"dx":0,"dy":0},{"dx":0,"dy":0},{"dx":0,"dy":0},{"dx":0,"dy":-1},{"dx":-1,"dy":-4},{"dx":-5,"dy":-3},{"dx":-9,"dy":-5},{"dx":-1,"dy":0},{"dx":-5,"dy":-2},{"dx":-5,"dy":-4},{"dx":-3,"dy":-3},{"dx":-5,"dy":-4},{"dx":-5,"dy":-3},{"dx":-4,"dy":-3},{"dx":-4,"dy":-2},{"dx":-5,"dy":-1},{"dx":-1,"dy":-1},{"dx":-6,"dy":0},{"dx":-9,"dy":0},{"dx":-5,"dy":0},{"dx":-7,"dy":1},{"dx":-4,"dy":1},{"dx":-6,"dy":2},{"dx":0,"dy":0},{"dx":-5,"dy":2},{"dx":-6,"dy":2},{"dx":-4,"dy":4},{"dx":-3,"dy":3},{"dx":-2,"dy":0},{"dx":0,"dy":2},{"dx":-2,"dy":4},{"dx":-3,"dy":4},{"dx":-2,"dy":5},{"dx":-3,"dy":3},{"dx":0,"dy":0},{"dx":-1,"dy":1},{"dx":0,"dy":0},{"dx":-1,"dy":1},{"dx":-3,"dy":4},{"dx":-1,"dy":1},{"dx":-4,"dy":4},{"dx":-3,"dy":3},{"dx":-4,"dy":3},{"dx":-8,"dy":7},{"dx":-4,"dy":3},{"dx":-3,"dy":2},{"dx":-4,"dy":3},{"dx":-4,"dy":3},{"dx":-1,"dy":0},{"dx":-4,"dy":3},{"dx":-1,"dy":0},{"dx":-4,"dy":2},{"dx":-5,"dy":0},{"dx":-1,"dy":0},{"dx":-4,"dy":0},{"dx":-7,"dy":-1},{"dx":-5,"dy":0},{"dx":-4,"dy":-1},{"dx":-5,"dy":0},{"dx":-5,"dy":-1},{"dx":-6,"dy":0},{"dx":-5,"dy":0},{"dx":-5,"dy":0},{"dx":-1,"dy":0},{"dx":-5,"dy":0},{"dx":-4,"dy":0},{"dx":-1,"dy":-1},{"dx":-4,"dy":-1},{"dx":-2,"dy":0},{"dx":-4,"dy":-2},{"dx":-1,"dy":0},{"dx":-4,"dy":-2},{"dx":-1,"dy":-1},{"dx":-3,"dy":-3},{"dx":-4,"dy":-3},{"dx":0,"dy":-1},{"dx":-4,"dy":-4},{"dx":-1,"dy":0},{"dx":-4,"dy":-4},{"dx":-3,"dy":-3},{"dx":-3,"dy":-3},{"dx":-1,"dy":-1},{"dx":-4,"dy":-3}],"trial_type":"plugin-moving-dots-2","trial_index":4,"plugin_version":"0.0.1","time_elapsed":28487},{"task":"fixation","rt":2336,"stimulus":"<div style=\"font-size:60px;\">+</div>","response":" ","trial_type":"html-keyboard-response","trial_index":5,"plugin_version":"2.1.0","time_elapsed":30826},{"task":"movingdots","control_change":0,"mouse_data":[{"dx":0,"dy":0},{"dx":0,"dy":0},{"dx":0,"dy":0},{"dx":0,"dy":0},{"dx":0,"dy":0},{"dx":0,"dy":0},{"dx":0,"dy":0},{"dx":0,"dy":0},{"dx":0,"dy":0},{"dx":0,"dy":0},{"dx":0,"dy":0},{"dx":0,"dy":0},{"dx":0,"dy":0},{"dx":0,"dy":0},{"dx":0,"dy":0},{"dx":0,"dy":0},{"dx":0,"dy":0},{"dx":0,"dy":0},{"dx":0,"dy":0},{"dx":0,"dy":0},{"dx":0,"dy":0},{"dx":0,"dy":0},{"dx":0,"dy":0},{"dx":0,"dy":0},{"dx":0,"dy":0},{"dx":0,"dy":0},{"dx":0,"dy":0},{"dx":0,"dy":0},{"dx":0,"dy":0},{"dx":0,"dy":0},{"dx":0,"dy":0},{"dx":0,"dy":0},{"dx":0,"dy":0},{"dx":0,"dy":0},{"dx":-1,"dy":-2},{"dx":-2,"dy":-4},{"dx":0,"dy":-1},{"dx":-5,"dy":-4},{"dx":-1,"dy":0},{"dx":-4,"dy":-3},{"dx":-9,"dy":-3},{"dx":-1,"dy":0},{"dx":-5,"dy":-1},{"dx":-10,"dy":-1},{"dx":-4,"dy":0},{"dx":-1,"dy":0},{"dx":-5,"dy":0},{"dx":0,"dy":0},{"dx":-1,"dy":0},{"dx":-2,"dy":0},{"dx":-5,"dy":0},{"dx":-1,"dy":0},{"dx":-4,"dy":1},{"dx":0,"dy":0},{"dx":0,"dy":0},{"dx":0,"dy":0},{"dx":0,"dy":0},{"dx":0,"dy":0},{"dx":0,"dy":0},{"dx":0,"dy":0},{"dx":0,"dy":0},{"dx":0,"dy":0},{"dx":0,"dy":0},{"dx":0,"dy":0},{"dx":0,"dy":0},{"dx":0,"dy":0},{"dx":0,"dy":0},{"dx":0,"dy":0},{"dx":0,"dy":0},{"dx":0,"dy":0},{"dx":-1,"dy":4},{"dx":-1,"dy":1},{"dx":-2,"dy":5},{"dx":-3,"dy":5},{"dx":-1,"dy":1},{"dx":-2,"dy":4},{"dx":0,"dy":1},{"dx":-1,"dy":1},{"dx":-2,"dy":5},{"dx":-3,"dy":4},{"dx":0,"dy":1},{"dx":-1,"dy":1},{"dx":0,"dy":1},{"dx":-1,"dy":1},{"dx":-1,"dy":0},{"dx":-3,"dy":5},{"dx":0,"dy":0},{"dx":-1,"dy":1},{"dx":-4,"dy":4},{"dx":-3,"dy":4},{"dx":0,"dy":0},{"dx":-4,"dy":3},{"dx":-3,"dy":4},{"dx":-1,"dy":1},{"dx":-8,"dy":5},{"dx":-1,"dy":0},{"dx":-4,"dy":3},{"dx":-6,"dy":2},{"dx":-1,"dy":0},{"dx":-3,"dy":-1},{"dx":-7,"dy":-8},{"dx":-3,"dy":-4},{"dx":-1,"dy":-1},{"dx":-2,"dy":-5},{"dx":-1,"dy":-6},{"dx":-1,"dy":-5},{"dx":0,"dy":-11},{"dx":0,"dy":-6},{"dx":1,"dy":-5},{"dx":3,"dy":-6},{"dx":2,"dy":-5},{"dx":3,"dy":-4},{"dx":4,"dy":-5},{"dx":3,"dy":-2},{"dx":4,"dy":-4},{"dx":7,"dy":-8},{"dx":3,"dy":-4},{"dx":5,"dy":-3},{"dx":2,"dy":-2},{"dx":5,"dy":-3},{"dx":3,"dy":-3},{"dx":5,"dy":-3},{"dx":4,"dy":-2},{"dx":4,"dy":-2},{"dx":8,"dy":-3},{"dx":5,"dy":-2},{"dx":2,"dy":0},{"dx":1,"dy":-1},{"dx":1,"dy":-1},{"dx":0,"dy":0},{"dx":0,"dy":0},{"dx":0,"dy":-2},{"dx":1,"dy":-4},{"dx":1,"dy":-5},{"dx":0,"dy":-2},{"dx":0,"dy":-6},{"dx":0,"dy":0},{"dx":-1,"dy":-5},{"dx":0,"dy":-1},{"dx":-2,"dy":-4},{"dx":-3,"dy":-3},{"dx":-5,"dy":-3},{"dx":-1,"dy":0},{"dx":-9,"dy":-5},{"dx":-5,"dy":-1},{"dx":-5,"dy":0},{"dx":-7,"dy":0},{"dx":-5,"dy":0},{"dx":0,"dy":0},{"dx":-5,"dy":2},{"dx":-5,"dy":1},{"dx":-5,"dy":3},{"dx":-6,"dy":7},{"dx":-1,"dy":1},{"dx":-4,"dy":4},{"dx":0,"dy":0},{"dx":-1,"dy":1},{"dx":0,"dy":0},{"dx":0,"dy":0},{"dx":0,"dy":0},{"dx":0,"dy":1},{"dx":0,"dy":1},{"dx":4,"dy":4},{"dx":0,"dy":0},{"dx":3,"dy":3},{"dx":5,"dy":2},{"dx":4,"dy":2},{"dx":4,"dy":1},{"dx":1,"dy":0},{"dx":4,"dy":2},{"dx":1,"dy":0},{"dx":1,"dy":1},{"dx":0,"dy":0},{"dx":0,"dy":0},{"dx":0,"dy":1},{"dx":-1,"dy":3},{"dx":-8,"dy":7},{"dx":-4,"dy":3},{"dx":-1,"dy":1},{"dx":-5,"dy":3},{"dx":-5,"dy":4},{"dx":-3,"dy":3},{"dx":-6,"dy":6},{"dx":-4,"dy":4},{"dx":-3,"dy":3},{"dx":-5,"dy":4},{"dx":-3,"dy":2},{"dx":-4,"dy":2},{"dx":-10,"dy":8},{"dx":-5,"dy":4},{"dx":-4,"dy":4},{"dx":-5,"dy":4},{"dx":-3,"dy":3},{"dx":-4,"dy":5},{"dx":-6,"dy":7},{"dx":0,"dy":1},{"dx":-3,"dy":3},{"dx":-2,"dy":1},{"dx":0,"dy":1},{"dx":-2,"dy":4},{"dx":-1,"dy":1},{"dx":0,"dy":1},{"dx":-1,"dy":1},{"dx":-2,"dy":6},{"dx":-2,"dy":5},{"dx":-1,"dy":0},{"dx":-2,"dy":5},{"dx":-5,"dy":10},{"dx":-3,"dy":7},{"dx":-3,"dy":8},{"dx":-2,"dy":7},{"dx":-2,"dy":6},{"dx":-1,"dy":5},{"dx":-1,"dy":7},{"dx":-2,"dy":7},{"dx":-2,"dy":5},{"dx":0,"dy":0},{"dx":-1,"dy":1},{"dx":0,"dy":2},{"dx":0,"dy":2},{"dx":0,"dy":5},{"dx":0,"dy":0},{"dx":0,"dy":2},{"dx":0,"dy":2},{"dx":0,"dy":0},{"dx":1,"dy":1},{"dx":3,"dy":4},{"dx":1,"dy":1},{"dx":1,"dy":1},{"dx":2,"dy":3},{"dx":0,"dy":1},{"dx":2,"dy":5},{"dx":1,"dy":5},{"dx":0,"dy":7},{"dx":0,"dy":6},{"dx":0,"dy":0},{"dx":0,"dy":7},{"dx":-1,"dy":5},{"dx":-1,"dy":5},{"dx":-2,"dy":5},{"dx":0,"dy":1},{"dx":-2,"dy":5},{"dx":-1,"dy":1},{"dx":-3,"dy":4},{"dx":-4,"dy":2},{"dx":-1,"dy":1},{"dx":-1,"dy":0},{"dx":-1,"dy":0},{"dx":-1,"dy":0},{"dx":0,"dy":0},{"dx":0,"dy":0},{"dx":0,"dy":0},{"dx":0,"dy":0},{"dx":0,"dy":0},{"dx":0,"dy":0},{"dx":0,"dy":0},{"dx":0,"dy":0},{"dx":0,"dy":0},{"dx":0,"dy":0},{"dx":0,"dy":0},{"dx":0,"dy":0},{"dx":0,"dy":0},{"dx":0,"dy":0},{"dx":0,"dy":0},{"dx":0,"dy":0},{"dx":0,"dy":0},{"dx":0,"dy":0},{"dx":0,"dy":0},{"dx":-4,"dy":2},{"dx":0,"dy":0},{"dx":-12,"dy":3},{"dx":-6,"dy":3},{"dx":-7,"dy":1},{"dx":-6,"dy":1},{"dx":0,"dy":0},{"dx":-6,"dy":0},{"dx":-4,"dy":-2},{"dx":-4,"dy":-2},{"dx":-4,"dy":-3},{"dx":-5,"dy":-5},{"dx":-2,"dy":-4},{"dx":-3,"dy":-5},{"dx":-2,"dy":-6},{"dx":-2,"dy":-6},{"dx":-2,"dy":-6},{"dx":-6,"dy":-10},{"dx":-5,"dy":-4},{"dx":-5,"dy":-5},{"dx":-5,"dy":-4},{"dx":-4,"dy":-2},{"dx":-3,"dy":-3},{"dx":-6,"dy":-3},{"dx":-4,"dy":-2},{"dx":-4,"dy":-1},{"dx":-5,"dy":-2},{"dx":-5,"dy":-2},{"dx":-6,"dy":-1},{"dx":-12,"dy":0},{"dx":-7,"dy":2},{"dx":-8,"dy":2},{"dx":-15,"dy":6},{"dx":-12,"dy":7},{"dx":-12,"dy":9},{"dx":-9,"dy":7},{"dx":-5,"dy":5},{"dx":-3,"dy":4},{"dx":-1,"dy":6},{"dx":0,"dy":6},{"dx":1,"dy":5},{"dx":3,"dy":5},{"dx":0,"dy":0},{"dx":0,"dy":1},{"dx":1,"dy":1},{"dx":0,"dy":0},{"dx":0,"dy":0},{"dx":0,"dy":0},{"dx":0,"dy":0},{"dx":0,"dy":0},{"dx":0,"dy":0},{"dx":0,"dy":1},{"dx":0,"dy":0},{"dx":0,"dy":0},{"dx":0,"dy":0},{"dx":0,"dy":0},{"dx":0,"dy":0},{"dx":0,"dy":0},{"dx":0,"dy":0},{"dx":0,"dy":0},{"dx":0,"dy":0},{"dx":0,"dy":0},{"dx":0,"dy":0},{"dx":0,"dy":0},{"dx":0,"dy":0},{"dx":0,"dy":0},{"dx":2,"dy":3},{"dx":3,"dy":7},{"dx":0,"dy":0},{"dx":3,"dy":4},{"dx":4,"dy":4},{"dx":5,"dy":3},{"dx":5,"dy":3},{"dx":0,"dy":0},{"dx":4,"dy":3},{"dx":4,"dy":2},{"dx":6,"dy":1},{"dx":6,"dy":0},{"dx":11,"dy":0},{"dx":8,"dy":0},{"dx":4,"dy":-1},{"dx":10,"dy":-3},{"dx":5,"dy":-2},{"dx":6,"dy":-1},{"dx":5,"dy":0},{"dx":6,"dy":0},{"dx":10,"dy":1},{"dx":15,"dy":2},{"dx":5,"dy":1},{"dx":12,"dy":2},{"dx":6,"dy":0},{"dx":7,"dy":1},{"dx":7,"dy":1},{"dx":7,"dy":0},{"dx":5,"dy":0},{"dx":4,"dy":0},{"dx":7,"dy":0},{"dx":6,"dy":0},{"dx":4,"dy":0},{"dx":4,"dy":0},{"dx":4,"dy":0},{"dx":4,"dy":-1},{"dx":5,"dy":0},{"dx":4,"dy":0},{"dx":1,"dy":0},{"dx":6,"dy":-2},{"dx":7,"dy":-1},{"dx":1,"dy":0},{"dx":1,"dy":-1},{"dx":5,"dy":-1},{"dx":4,"dy":-1},{"dx":2,"dy":-1},{"dx":1,"dy":0},{"dx":1,"dy":0},{"dx":0,"dy":0},{"dx":0,"dy":0},{"dx":0,"dy":0},{"dx":0,"dy":-1},{"dx":7,"dy":-1},{"dx":9,"dy":0},{"dx":15,"dy":4},{"dx":4,"dy":1},{"dx":7,"dy":3},{"dx":15,"dy":7},{"dx":10,"dy":4},{"dx":7,"dy":4},{"dx":4,"dy":4},{"dx":3,"dy":2},{"dx":4,"dy":5},{"dx":4,"dy":5},{"dx":0,"dy":0},{"dx":2,"dy":5},{"dx":3,"dy":6},{"dx":2,"dy":6},{"dx":0,"dy":1},{"dx":2,"dy":6},{"dx":2,"dy":5},{"dx":0,"dy":0},{"dx":1,"dy":0},{"dx":1,"dy":1},{"dx":0,"dy":0},{"dx":0,"dy":0},{"dx":0,"dy":0},{"dx":0,"dy":0},{"dx":0,"dy":0},{"dx":0,"dy":0},{"dx":0,"dy":0},{"dx":0,"dy":0},{"dx":0,"dy":0},{"dx":0,"dy":0},{"dx":0,"dy":0},{"dx":0,"dy":0},{"dx":0,"dy":0},{"dx":0,"dy":0},{"dx":0,"dy":0},{"dx":0,"dy":0},{"dx":0,"dy":0},{"dx":6,"dy":2},{"dx":11,"dy":3},{"dx":10,"dy":3},{"dx":7,"dy":2},{"dx":6,"dy":2},{"dx":8,"dy":4},{"dx":4,"dy":1},{"dx":4,"dy":2},{"dx":4,"dy":2},{"dx":4,"dy":2},{"dx":5,"dy":2},{"dx":8,"dy":4},{"dx":6,"dy":2},{"dx":7,"dy":2},{"dx":6,"dy":1},{"dx":4,"dy":0},{"dx":4,"dy":0},{"dx":5,"dy":-1},{"dx":5,"dy":-1},{"dx":6,"dy":-2},{"dx":7,"dy":-2},{"dx":4,"dy":-1},{"dx":1,"dy":-1},{"dx":1,"dy":0},{"dx":7,"dy":-3},{"dx":5,"dy":-3},{"dx":3,"dy":-2},{"dx":1,"dy":0}],"trial_type":"plugin-moving-dots-2","trial_index":6,"plugin_version":"0.0.1","time_elapsed":38336},{"task":"fixation","rt":2727,"stimulus":"<div style=\"font-size:60px;\">+</div>","response":" ","trial_type":"html-keyboard-response","trial_index":7,"plugin_version":"2.1.0","time_elapsed":41066},{"task":"movingdots","control_change":0,"mouse_data":[{"dx":0,"dy":0},{"dx":0,"dy":0},{"dx":0,"dy":0},{"dx":0,"dy":0},{"dx":0,"dy":0},{"dx":0,"dy":0},{"dx":0,"dy":0},{"dx":0,"dy":0},{"dx":0,"dy":0},{"dx":0,"dy":0},{"dx":0,"dy":0},{"dx":0,"dy":0},{"dx":0,"dy":0},{"dx":0,"dy":0},{"dx":0,"dy":0},{"dx":0,"dy":0},{"dx":0,"dy":0},{"dx":0,"dy":0},{"dx":0,"dy":0},{"dx":0,"dy":0},{"dx":0,"dy":0},{"dx":0,"dy":0},{"dx":0,"dy":0},{"dx":0,"dy":0},{"dx":0,"dy":0},{"dx":0,"dy":0},{"dx":0,"dy":0},{"dx":0,"dy":0},{"dx":2,"dy":-4},{"dx":2,"dy":-6},{"dx":3,"dy":-5},{"dx":3,"dy":-6},{"dx":3,"dy":-3},{"dx":7,"dy":-8},{"dx":0,"dy":-1},{"dx":1,"dy":-1},{"dx":0,"dy":-1},{"dx":4,"dy":-5},{"dx":4,"dy":-4},{"dx":4,"dy":-4},{"dx":4,"dy":-3},{"dx":4,"dy":-4},{"dx":4,"dy":-3},{"dx":5,"dy":-2},{"dx":5,"dy":-2},{"dx":9,"dy":-3},{"dx":4,"dy":-2},{"dx":4,"dy":-1},{"dx":7,"dy":-2},{"dx":6,"dy":-2},{"dx":6,"dy":0},{"dx":4,"dy":-1},{"dx":6,"dy":-1},{"dx":3,"dy":0},{"dx":1,"dy":0},{"dx":6,"dy":0},{"dx":5,"dy":0},{"dx":5,"dy":2},{"dx":0,"dy":0},{"dx":0,"dy":0},{"dx":0,"dy":0},{"dx":0,"dy":0},{"dx":0,"dy":0},{"dx":0,"dy":0},{"dx":0,"dy":0},{"dx":5,"dy":4},{"dx":4,"dy":2},{"dx":8,"dy":5},{"dx":6,"dy":4},{"dx":4,"dy":3},{"dx":5,"dy":3},{"dx":4,"dy":2},{"dx":5,"dy":2},{"dx":8,"dy":4},{"dx":5,"dy":3},{"dx":5,"dy":2},{"dx":4,"dy":3},{"dx":4,"dy":2},{"dx":5,"dy":2},{"dx":9,"dy":3},{"dx":5,"dy":0},{"dx":4,"dy":1},{"dx":4,"dy":0},{"dx":5,"dy":0},{"dx":4,"dy":0},{"dx":17,"dy":0},{"dx":6,"dy":0},{"dx":7,"dy":0},{"dx":13,"dy":-3},{"dx":9,"dy":-2},{"dx":6,"dy":-2},{"dx":16,"dy":-6},{"dx":11,"dy":-4},{"dx":9,"dy":-3},{"dx":11,"dy":-4},{"dx":5,"dy":-3},{"dx":3,"dy":-2},{"dx":1,"dy":-1},{"dx":1,"dy":-1},{"dx":1,"dy":0},{"dx":1,"dy":-1},{"dx":4,"dy":-4},{"dx":3,"dy":-4},{"dx":6,"dy":-8},{"dx":0,"dy":-1},{"dx":1,"dy":-6},{"dx":0,"dy":-1},{"dx":1,"dy":-5},{"dx":-1,"dy":-6},{"dx":-6,"dy":-11},{"dx":-4,"dy":-4},{"dx":-3,"dy":-5},{"dx":-4,"dy":-3},{"dx":-5,"dy":-4},{"dx":-12,"dy":-7},{"dx":-7,"dy":-3},{"dx":-4,"dy":-2},{"dx":-6,"dy":-1},{"dx":-5,"dy":-1},{"dx":-15,"dy":0},{"dx":-5,"dy":0},{"dx":-7,"dy":2},{"dx":-1,"dy":0},{"dx":-1,"dy":1},{"dx":0,"dy":2},{"dx":2,"dy":5},{"dx":11,"dy":7},{"dx":16,"dy":7},{"dx":11,"dy":4},{"dx":12,"dy":1},{"dx":17,"dy":2},{"dx":12,"dy":0},{"dx":13,"dy":0},{"dx":16,"dy":-2},{"dx":6,"dy":-1},{"dx":5,"dy":-2},{"dx":2,"dy":0},{"dx":1,"dy":-1},{"dx":1,"dy":-1},{"dx":0,"dy":-1},{"dx":1,"dy":-5},{"dx":0,"dy":-1},{"dx":0,"dy":-6},{"dx":-3,"dy":-5},{"dx":-2,"dy":-3},{"dx":-4,"dy":-4},{"dx":-3,"dy":-5},{"dx":-4,"dy":-5},{"dx":-7,"dy":-7},{"dx":-3,"dy":-3},{"dx":-5,"dy":-3},{"dx":-6,"dy":-2},{"dx":-5,"dy":-1},{"dx":-4,"dy":-1},{"dx":-11,"dy":-4},{"dx":-8,"dy":-1},{"dx":-4,"dy":-2},{"dx":-7,"dy":-2},{"dx":-4,"dy":-1},{"dx":-8,"dy":0},{"dx":-16,"dy":-3},{"dx":-7,"dy":-1},{"dx":-6,"dy":0},{"dx":-4,"dy":0},{"dx":-4,"dy":-1},{"dx":-5,"dy":0},{"dx":-12,"dy":-1},{"dx":-5,"dy":-1},{"dx":-4,"dy":0},{"dx":-4,"dy":0},{"dx":-5,"dy":-1},{"dx":-6,"dy":0},{"dx":-9,"dy":-1},{"dx":-4,"dy":0},{"dx":-5,"dy":0},{"dx":-6,"dy":0},{"dx":-12,"dy":1},{"dx":-6,"dy":0},{"dx":-6,"dy":1},{"dx":-11,"dy":1},{"dx":-5,"dy":1},{"dx":-6,"dy":1},{"dx":-7,"dy":1},{"dx":-7,"dy":2},{"dx":-4,"dy":2},{"dx":-9,"dy":4},{"dx":0,"dy":0},{"dx":-4,"dy":1},{"dx":-3,"dy":4},{"dx":-4,"dy":4},{"dx":0,"dy":0},{"dx":-3,"dy":4},{"dx":0,"dy":0},{"dx":0,"dy":1},{"dx":0,"dy":0},{"dx":-1,"dy":1},{"dx":0,"dy":0},{"dx":0,"dy":2},{"dx":2,"dy":4},{"dx":1,"dy":0},{"dx":2,"dy":3},{"dx":3,"dy":3},{"dx":1,"dy":1},{"dx":9,"dy":4},{"dx":6,"dy":2},{"dx":6,"dy":1},{"dx":8,"dy":2},{"dx":5,"dy":1},{"dx":4,"dy":0},{"dx":12,"dy":0},{"dx":8,"dy":-1},{"dx":10,"dy":-2},{"dx":7,"dy":-3},{"dx":5,"dy":-2},{"dx":2,"dy":-3},{"dx":0,"dy":0},{"dx":1,"dy":-1},{"dx":2,"dy":-5},{"dx":0,"dy":-6},{"dx":0,"dy":-2},{"dx":0,"dy":-5},{"dx":-2,"dy":-4},{"dx":-3,"dy":-5},{"dx":-4,"dy":-4},{"dx":-7,"dy":-6},{"dx":-7,"dy":-3},{"dx":-5,"dy":-3},{"dx":-8,"dy":-4},{"dx":-6,"dy":-2},{"dx":-6,"dy":-2},{"dx":-9,"dy":-2},{"dx":-7,"dy":-1},{"dx":-6,"dy":0},{"dx":-6,"dy":0},{"dx":-6,"dy":0},{"dx":-11,"dy":2},{"dx":-11,"dy":3},{"dx":-20,"dy":5},{"dx":-12,"dy":4},{"dx":-10,"dy":4},{"dx":-13,"dy":4},{"dx":-7,"dy":3},{"dx":-6,"dy":4},{"dx":-10,"dy":7},{"dx":-8,"dy":5},{"dx":-9,"dy":6},{"dx":-6,"dy":4},{"dx":-5,"dy":3},{"dx":-4,"dy":4},{"dx":-4,"dy":4},{"dx":0,"dy":0},{"dx":-1,"dy":1},{"dx":-1,"dy":2},{"dx":0,"dy":0},{"dx":4,"dy":2},{"dx":5,"dy":1},{"dx":12,"dy":2},{"dx":11,"dy":2},{"dx":11,"dy":3},{"dx":5,"dy":2},{"dx":1,"dy":0},{"dx":9,"dy":4},{"dx":3,"dy":2},{"dx":5,"dy":4},{"dx":4,"dy":3},{"dx":4,"dy":4},{"dx":3,"dy":4},{"dx":7,"dy":6},{"dx":1,"dy":1},{"dx":3,"dy":6},{"dx":2,"dy":5},{"dx":2,"dy":6},{"dx":0,"dy":4},{"dx":0,"dy":7},{"dx":0,"dy":7},{"dx":0,"dy":6},{"dx":-3,"dy":15},{"dx":-4,"dy":7},{"dx":-3,"dy":4},{"dx":-3,"dy":6},{"dx":-4,"dy":4},{"dx":-3,"dy":4},{"dx":-5,"dy":3},{"dx":-5,"dy":2},{"dx":-5,"dy":2},{"dx":-5,"dy":2},{"dx":-6,"dy":2},{"dx":-5,"dy":2},{"dx":-10,"dy":3},{"dx":-8,"dy":2},{"dx":-6,"dy":1},{"dx":-13,"dy":3},{"dx":-7,"dy":1},{"dx":-7,"dy":1},{"dx":-14,"dy":1},{"dx":-9,"dy":0},{"dx":-8,"dy":0},{"dx":-9,"dy":0},{"dx":-12,"dy":0},{"dx":-11,"dy":0},{"dx":-16,"dy":1},{"dx":-5,"dy":0},{"dx":-7,"dy":0},{"dx":-14,"dy":2},{"dx":-7,"dy":1},{"dx":-5,"dy":0},{"dx":-4,"dy":1},{"dx":-2,"dy":0},{"dx":-1,"dy":0},{"dx":-5,"dy":1},{"dx":0,"dy":0},{"dx":-1,"dy":0},{"dx":0,"dy":0},{"dx":0,"dy":0},{"dx":0,"dy":0},{"dx":0,"dy":0},{"dx":0,"dy":0},{"dx":-1,"dy":0},{"dx":0,"dy":0},{"dx":0,"dy":0},{"dx":0,"dy":0},{"dx":0,"dy":0},{"dx":0,"dy":0},{"dx":0,"dy":0},{"dx":0,"dy":0},{"dx":0,"dy":0},{"dx":0,"dy":0},{"dx":0,"dy":0},{"dx":0,"dy":0},{"dx":0,"dy":0},{"dx":-4,"dy":2},{"dx":-3,"dy":3},{"dx":0,"dy":0},{"dx":-1,"dy":1},{"dx":0,"dy":0},{"dx":-6,"dy":2},{"dx":-6,"dy":2},{"dx":-6,"dy":1},{"dx":-3,"dy":2},{"dx":-5,"dy":2},{"dx":-6,"dy":4},{"dx":-4,"dy":2},{"dx":-5,"dy":2},{"dx":0,"dy":1},{"dx":-2,"dy":0},{"dx":0,"dy":0},{"dx":0,"dy":0},{"dx":0,"dy":0},{"dx":0,"dy":0},{"dx":0,"dy":0},{"dx":0,"dy":0},{"dx":0,"dy":0},{"dx":0,"dy":0},{"dx":0,"dy":0},{"dx":0,"dy":0},{"dx":0,"dy":0},{"dx":0,"dy":0},{"dx":0,"dy":0},{"dx":0,"dy":0},{"dx":0,"dy":0},{"dx":0,"dy":0},{"dx":0,"dy":0},{"dx":0,"dy":0},{"dx":0,"dy":0},{"dx":0,"dy":0},{"dx":0,"dy":0},{"dx":0,"dy":0},{"dx":0,"dy":0},{"dx":0,"dy":0},{"dx":0,"dy":0},{"dx":-25,"dy":2},{"dx":-15,"dy":1},{"dx":-13,"dy":1},{"dx":-16,"dy":2},{"dx":-5,"dy":0},{"dx":-7,"dy":1},{"dx":-13,"dy":0},{"dx":-7,"dy":0},{"dx":-7,"dy":1},{"dx":-9,"dy":0},{"dx":-6,"dy":2},{"dx":-7,"dy":1},{"dx":-14,"dy":5},{"dx":-8,"dy":2},{"dx":-9,"dy":1},{"dx":-12,"dy":4},{"dx":-9,"dy":1},{"dx":-11,"dy":3},{"dx":-17,"dy":4},{"dx":-7,"dy":3},{"dx":-7,"dy":2},{"dx":-8,"dy":3},{"dx":-15,"dy":8},{"dx":-11,"dy":5},{"dx":-15,"dy":8},{"dx":-6,"dy":3},{"dx":-6,"dy":3},{"dx":-12,"dy":6},{"dx":-7,"dy":4},{"dx":-6,"dy":3},{"dx":-6,"dy":4},{"dx":-3,"dy":3},{"dx":-4,"dy":3},{"dx":-6,"dy":7},{"dx":-5,"dy":4},{"dx":-3,"dy":5},{"dx":-5,"dy":4},{"dx":-2,"dy":5},{"dx":-3,"dy":3},{"dx":-4,"dy":4},{"dx":-3,"dy":5},{"dx":-1,"dy":0},{"dx":-3,"dy":5},{"dx":-3,"dy":6},{"dx":-3,"dy":5},{"dx":-4,"dy":9},{"dx":-1,"dy":0},{"dx":-2,"dy":5},{"dx":-3,"dy":6},{"dx":-3,"dy":6},{"dx":-4,"dy":4},{"dx":-5,"dy":7},{"dx":-4,"dy":3},{"dx":-4,"dy":4},{"dx":-5,"dy":4},{"dx":-4,"dy":3},{"dx":-5,"dy":2},{"dx":-7,"dy":3},{"dx":-4,"dy":2},{"dx":-4,"dy":1},{"dx":-6,"dy":2},{"dx":-5,"dy":2},{"dx":-5,"dy":1},{"dx":-6,"dy":1},{"dx":-3,"dy":1},{"dx":-5,"dy":0},{"dx":-5,"dy":0},{"dx":-5,"dy":0},{"dx":-1,"dy":0},{"dx":-2,"dy":0},{"dx":-4,"dy":0},{"dx":-1,"dy":0},{"dx":-2,"dy":-1},{"dx":-2,"dy":-1},{"dx":-1,"dy":0},{"dx":-2,"dy":-2},{"dx":0,"dy":-1},{"dx":-1,"dy":0},{"dx":-2,"dy":-1},{"dx":-1,"dy":-1},{"dx":-1,"dy":0},{"dx":-2,"dy":0}],"trial_type":"plugin-moving-dots-2","trial_index":8,"plugin_version":"0.0.1","time_elapsed":48570},{"task":"fixation","rt":2862,"stimulus":"<div style=\"font-size:60px;\">+</div>","response":" ","trial_type":"html-keyboard-response","trial_index":9,"plugin_version":"2.1.0","time_elapsed":51434},{"task":"movingdots","control_change":0,"mouse_data":[{"dx":0,"dy":0},{"dx":0,"dy":0},{"dx":0,"dy":0},{"dx":0,"dy":0},{"dx":0,"dy":0},{"dx":0,"dy":0},{"dx":0,"dy":0},{"dx":0,"dy":0},{"dx":0,"dy":0},{"dx":0,"dy":0},{"dx":0,"dy":0},{"dx":0,"dy":0},{"dx":0,"dy":0},{"dx":0,"dy":0},{"dx":0,"dy":0},{"dx":0,"dy":0},{"dx":0,"dy":0},{"dx":0,"dy":0},{"dx":0,"dy":0},{"dx":0,"dy":0},{"dx":0,"dy":0},{"dx":0,"dy":0},{"dx":0,"dy":0},{"dx":0,"dy":0},{"dx":0,"dy":0},{"dx":0,"dy":0},{"dx":0,"dy":0},{"dx":1,"dy":-4},{"dx":1,"dy":-6},{"dx":1,"dy":-6},{"dx":0,"dy":-10},{"dx":-1,"dy":-5},{"dx":-2,"dy":-5},{"dx":-4,"dy":-5},{"dx":-3,"dy":-3},{"dx":-4,"dy":-3},{"dx":-4,"dy":-3},{"dx":-3,"dy":-2},{"dx":-4,"dy":-2},{"dx":0,"dy":0},{"dx":0,"dy":0},{"dx":0,"dy":0},{"dx":0,"dy":0},{"dx":0,"dy":0},{"dx":0,"dy":0},{"dx":0,"dy":0},{"dx":0,"dy":0},{"dx":0,"dy":0},{"dx":0,"dy":0},{"dx":0,"dy":0},{"dx":0,"dy":0},{"dx":0,"dy":0},{"dx":0,"dy":0},{"dx":0,"dy":0},{"dx":0,"dy":0},{"dx":0,"dy":0},{"dx":0,"dy":0},{"dx":0,"dy":0},{"dx":0,"dy":0},{"dx":0,"dy":0},{"dx":0,"dy":0},{"dx":0,"dy":0},{"dx":0,"dy":0},{"dx":0,"dy":0},{"dx":0,"dy":0},{"dx":0,"dy":0},{"dx":0,"dy":0},{"dx":0,"dy":0},{"dx":0,"dy":0},{"dx":0,"dy":0},{"dx":0,"dy":0},{"dx":0,"dy":0},{"dx":0,"dy":0},{"dx":0,"dy":0},{"dx":0,"dy":0},{"dx":0,"dy":0},{"dx":0,"dy":0},{"dx":0,"dy":0},{"dx":0,"dy":0},{"dx":0,"dy":0},{"dx":0,"dy":0},{"dx":0,"dy":0},{"dx":0,"dy":0},{"dx":0,"dy":0},{"dx":0,"dy":0},{"dx":-3,"dy":-6},{"dx":-4,"dy":-6},{"dx":-9,"dy":-15},{"dx":-4,"dy":-6},{"dx":-1,"dy":-1},{"dx":-3,"dy":-5},{"dx":-4,"dy":-5},{"dx":-4,"dy":-4},{"dx":-4,"dy":-5},{"dx":-3,"dy":-4},{"dx":-3,"dy":-5},{"dx":-3,"dy":-6},{"dx":-3,"dy":-5},{"dx":-7,"dy":-8},{"dx":-4,"dy":-5},{"dx":-4,"dy":-4},{"dx":-3,"dy":-4},{"dx":-6,"dy":-9},{"dx":-5,"dy":-6},{"dx":-7,"dy":-6},{"dx":-4,"dy":-6},{"dx":-3,"dy":-4},{"dx":-3,"dy":-3},{"dx":-8,"dy":-7},{"dx":-5,"dy":-4},{"dx":-6,"dy":-5},{"dx":-12,"dy":-10},{"dx":-5,"dy":-5},{"dx":-9,"dy":-5},{"dx":-11,"dy":-5},{"dx":-22,"dy":-6},{"dx":-12,"dy":-3},{"dx":-15,"dy":-4},{"dx":-13,"dy":-3},{"dx":-11,"dy":-3},{"dx":-17,"dy":-3},{"dx":-11,"dy":-2},{"dx":-6,"dy":-1},{"dx":-14,"dy":0},{"dx":-5,"dy":0},{"dx":-5,"dy":0},{"dx":-5,"dy":0},{"dx":-1,"dy":1},{"dx":-1,"dy":0},{"dx":-1,"dy":0},{"dx":0,"dy":0},{"dx":0,"dy":0},{"dx":0,"dy":0},{"dx":-1,"dy":2},{"dx":0,"dy":0},{"dx":-1,"dy":2},{"dx":0,"dy":2},{"dx":-1,"dy":5},{"dx":-2,"dy":6},{"dx":0,"dy":1},{"dx":-2,"dy":6},{"dx":-3,"dy":6},{"dx":-2,"dy":5},{"dx":-3,"dy":4},{"dx":-4,"dy":6},{"dx":-2,"dy":3},{"dx":0,"dy":1},{"dx":-4,"dy":4},{"dx":-3,"dy":5},{"dx":-4,"dy":4},{"dx":-4,"dy":5},{"dx":-4,"dy":4},{"dx":-4,"dy":3},{"dx":-1,"dy":0},{"dx":-4,"dy":2},{"dx":-5,"dy":1},{"dx":-4,"dy":0},{"dx":-5,"dy":0},{"dx":-4,"dy":-3},{"dx":-5,"dy":-3},{"dx":-4,"dy":-4},{"dx":-4,"dy":-3},{"dx":-3,"dy":-4},{"dx":-7,"dy":-8},{"dx":-4,"dy":-3},{"dx":-4,"dy":-5},{"dx":-3,"dy":-4},{"dx":-3,"dy":-5},{"dx":-3,"dy":-6},{"dx":-3,"dy":-5},{"dx":-2,"dy":-6},{"dx":-2,"dy":-5},{"dx":-1,"dy":-6},{"dx":-1,"dy":-7},{"dx":-1,"dy":-1},{"dx":-2,"dy":-12},{"dx":-1,"dy":-5},{"dx":-2,"dy":-6},{"dx":-3,"dy":-4},{"dx":-2,"dy":-5},{"dx":-3,"dy":-4},{"dx":-7,"dy":-8},{"dx":-5,"dy":-2},{"dx":0,"dy":0},{"dx":-2,"dy":-1},{"dx":0,"dy":0},{"dx":0,"dy":0},{"dx":0,"dy":0},{"dx":0,"dy":0},{"dx":0,"dy":0},{"dx":0,"dy":0},{"dx":0,"dy":0},{"dx":0,"dy":0},{"dx":0,"dy":0},{"dx":0,"dy":0},{"dx":0,"dy":0},{"dx":0,"dy":0},{"dx":0,"dy":0},{"dx":0,"dy":0},{"dx":0,"dy":0},{"dx":0,"dy":0},{"dx":0,"dy":0},{"dx":0,"dy":0},{"dx":0,"dy":0},{"dx":0,"dy":0},{"dx":0,"dy":0},{"dx":0,"dy":0},{"dx":0,"dy":0},{"dx":0,"dy":0},{"dx":0,"dy":0},{"dx":0,"dy":0},{"dx":0,"dy":0},{"dx":0,"dy":0},{"dx":-6,"dy":0},{"dx":-14,"dy":-2},{"dx":-7,"dy":0},{"dx":-7,"dy":-2},{"dx":-8,"dy":-2},{"dx":-11,"dy":-2},{"dx":-12,"dy":-3},{"dx":-13,"dy":-4},{"dx":-9,"dy":-2},{"dx":-8,"dy":-2},{"dx":-13,"dy":-3},{"dx":-5,"dy":-1},{"dx":-5,"dy":-2},{"dx":-4,"dy":-1},{"dx":-6,"dy":-1},{"dx":0,"dy":-1},{"dx":-5,"dy":0},{"dx":-5,"dy":0},{"dx":-5,"dy":0},{"dx":-5,"dy":1},{"dx":-2,"dy":0},{"dx":-4,"dy":2},{"dx":-6,"dy":2},{"dx":-5,"dy":1},{"dx":-5,"dy":2},{"dx":-4,"dy":1},{"dx":-1,"dy":0},{"dx":-5,"dy":0},{"dx":-5,"dy":0},{"dx":-6,"dy":0},{"dx":0,"dy":0},{"dx":-4,"dy":-2},{"dx":-4,"dy":-2},{"dx":-3,"dy":-2},{"dx":0,"dy":-1},{"dx":-3,"dy":-6},{"dx":0,"dy":-1},{"dx":0,"dy":-6},{"dx":0,"dy":-5},{"dx":1,"dy":-6},{"dx":0,"dy":-7},{"dx":0,"dy":-13},{"dx":-1,"dy":-4},{"dx":-2,"dy":-4},{"dx":-3,"dy":-4},{"dx":-3,"dy":-3},{"dx":-4,"dy":-3},{"dx":-6,"dy":-2},{"dx":-10,"dy":-1},{"dx":-5,"dy":0},{"dx":-15,"dy":2},{"dx":-6,"dy":3},{"dx":-6,"dy":2},{"dx":-5,"dy":3},{"dx":-5,"dy":4},{"dx":-3,"dy":4},{"dx":-4,"dy":8},{"dx":-2,"dy":6},{"dx":0,"dy":5},{"dx":0,"dy":6},{"dx":0,"dy":5},{"dx":0,"dy":8},{"dx":3,"dy":14},{"dx":3,"dy":6},{"dx":2,"dy":5},{"dx":3,"dy":6},{"dx":3,"dy":4},{"dx":3,"dy":5},{"dx":5,"dy":9},{"dx":2,"dy":4},{"dx":1,"dy":1},{"dx":6,"dy":7},{"dx":4,"dy":4},{"dx":3,"dy":4},{"dx":4,"dy":5},{"dx":3,"dy":4},{"dx":1,"dy":1},{"dx":3,"dy":5},{"dx":3,"dy":6},{"dx":2,"dy":6},{"dx":6,"dy":7},{"dx":2,"dy":3},{"dx":3,"dy":6},{"dx":4,"dy":5},{"dx":2,"dy":4},{"dx":2,"dy":6},{"dx":3,"dy":7},{"dx":1,"dy":6},{"dx":3,"dy":5},{"dx":2,"dy":5},{"dx":3,"dy":4},{"dx":2,"dy":5},{"dx":3,"dy":10},{"dx":2,"dy":7},{"dx":2,"dy":7},{"dx":3,"dy":8},{"dx":2,"dy":7},{"dx":3,"dy":10},{"dx":1,"dy":15},{"dx":1,"dy":11},{"dx":0,"dy":8},{"dx":0,"dy":17},{"dx":0,"dy":8},{"dx":0,"dy":7},{"dx":-1,"dy":7},{"dx":-2,"dy":5},{"dx":-1,"dy":7},{"dx":-3,"dy":10},{"dx":-1,"dy":4},{"dx":-2,"dy":4},{"dx":-3,"dy":4},{"dx":-3,"dy":4},{"dx":-3,"dy":5},{"dx":-3,"dy":5},{"dx":-2,"dy":4},{"dx":-1,"dy":0},{"dx":-2,"dy":4},{"dx":-3,"dy":4},{"dx":-1,"dy":1},{"dx":-2,"dy":1},{"dx":0,"dy":1},{"dx":0,"dy":0},{"dx":0,"dy":0},{"dx":-1,"dy":1},{"dx":0,"dy":1},{"dx":-1,"dy":11},{"dx":0,"dy":6},{"dx":0,"dy":5},{"dx":1,"dy":7},{"dx":1,"dy":6},{"dx":2,"dy":6},{"dx":2,"dy":4},{"dx":3,"dy":5},{"dx":3,"dy":5},{"dx":4,"dy":4},{"dx":4,"dy":3},{"dx":4,"dy":3},{"dx":9,"dy":6},{"dx":4,"dy":2},{"dx":6,"dy":2},{"dx":6,"dy":1},{"dx":6,"dy":2},{"dx":5,"dy":0},{"dx":10,"dy":2},{"dx":6,"dy":0},{"dx":8,"dy":0},{"dx":8,"dy":1},{"dx":7,"dy":0},{"dx":6,"dy":0},{"dx":7,"dy":-1},{"dx":10,"dy":-1},{"dx":6,"dy":-1},{"dx":5,"dy":-2},{"dx":6,"dy":-1},{"dx":5,"dy":-1},{"dx":6,"dy":-1},{"dx":7,"dy":-1},{"dx":5,"dy":-1},{"dx":5,"dy":0},{"dx":8,"dy":0},{"dx":6,"dy":1},{"dx":4,"dy":0},{"dx":7,"dy":2},{"dx":4,"dy":2},{"dx":5,"dy":2},{"dx":4,"dy":2},{"dx":5,"dy":4},{"dx":4,"dy":4},{"dx":6,"dy":6},{"dx":3,"dy":3},{"dx":3,"dy":3},{"dx":4,"dy":5},{"dx":2,"dy":5},{"dx":3,"dy":3},{"dx":5,"dy":9},{"dx":2,"dy":5},{"dx":3,"dy":5},{"dx":3,"dy":6},{"dx":2,"dy":4},{"dx":3,"dy":3},{"dx":6,"dy":7},{"dx":3,"dy":3},{"dx":4,"dy":2},{"dx":5,"dy":2},{"dx":5,"dy":0},{"dx":5,"dy":1},{"dx":9,"dy":1},{"dx":5,"dy":0},{"dx":5,"dy":0},{"dx":5,"dy":0},{"dx":6,"dy":0},{"dx":5,"dy":-1},{"dx":12,"dy":-2},{"dx":8,"dy":-1},{"dx":6,"dy":-2},{"dx":6,"dy":-2},{"dx":5,"dy":-3},{"dx":4,"dy":-4},{"dx":0,"dy":0},{"dx":2,"dy":-2},{"dx":0,"dy":0},{"dx":0,"dy":0},{"dx":0,"dy":0},{"dx":0,"dy":0},{"dx":0,"dy":0},{"dx":0,"dy":0},{"dx":0,"dy":0},{"dx":0,"dy":0},{"dx":0,"dy":0},{"dx":0,"dy":0},{"dx":0,"dy":0},{"dx":0,"dy":0},{"dx":0,"dy":0},{"dx":0,"dy":0},{"dx":0,"dy":0},{"dx":0,"dy":0},{"dx":0,"dy":0},{"dx":0,"dy":0},{"dx":0,"dy":0},{"dx":0,"dy":0},{"dx":0,"dy":0},{"dx":0,"dy":0},{"dx":0,"dy":0},{"dx":0,"dy":0},{"dx":0,"dy":0},{"dx":0,"dy":0},{"dx":0,"dy":0},{"dx":0,"dy":0},{"dx":0,"dy":0},{"dx":0,"dy":0},{"dx":2,"dy":-3},{"dx":6,"dy":-9},{"dx":6,"dy":-8},{"dx":6,"dy":-7},{"dx":5,"dy":-6},{"dx":8,"dy":-10},{"dx":4,"dy":-4},{"dx":3,"dy":-4},{"dx":4,"dy":-3}],"trial_type":"plugin-moving-dots-2","trial_index":10,"plugin_version":"0.0.1","time_elapsed":58937},{"task":"fixation","rt":2848,"stimulus":"<div style=\"font-size:60px;\">+</div>","response":" ","trial_type":"html-keyboard-response","trial_index":11,"plugin_version":"2.1.0","time_elapsed":61785},{"task":"movingdots","control_change":0,"mouse_data":[{"dx":0,"dy":0},{"dx":-1,"dy":0},{"dx":0,"dy":0},{"dx":0,"dy":0},{"dx":0,"dy":0},{"dx":0,"dy":0},{"dx":0,"dy":0},{"dx":0,"dy":0},{"dx":0,"dy":0},{"dx":0,"dy":0},{"dx":0,"dy":0},{"dx":0,"dy":0},{"dx":0,"dy":0},{"dx":0,"dy":0},{"dx":0,"dy":0},{"dx":0,"dy":0},{"dx":0,"dy":0},{"dx":0,"dy":0},{"dx":0,"dy":0},{"dx":0,"dy":0},{"dx":0,"dy":0},{"dx":0,"dy":0},{"dx":0,"dy":0},{"dx":0,"dy":0},{"dx":0,"dy":0},{"dx":0,"dy":0},{"dx":0,"dy":0},{"dx":0,"dy":0},{"dx":0,"dy":0},{"dx":0,"dy":0},{"dx":0,"dy":0},{"dx":0,"dy":0},{"dx":0,"dy":0},{"dx":0,"dy":0},{"dx":4,"dy":3},{"dx":18,"dy":3},{"dx":9,"dy":0},{"dx":10,"dy":-2},{"dx":15,"dy":-4},{"dx":11,"dy":-4},{"dx":10,"dy":-4},{"dx":10,"dy":-4},{"dx":14,"dy":-5},{"dx":7,"dy":-3},{"dx":5,"dy":-1},{"dx":5,"dy":-2},{"dx":5,"dy":-2},{"dx":7,"dy":-2},{"dx":10,"dy":-4},{"dx":5,"dy":-2},{"dx":5,"dy":-3},{"dx":7,"dy":-4},{"dx":8,"dy":-3},{"dx":7,"dy":-3},{"dx":12,"dy":-4},{"dx":4,"dy":-2},{"dx":6,"dy":-3},{"dx":8,"dy":-2},{"dx":9,"dy":-1},{"dx":7,"dy":-1},{"dx":3,"dy":0},{"dx":4,"dy":-1},{"dx":6,"dy":-1},{"dx":5,"dy":0},{"dx":0,"dy":0},{"dx":4,"dy":0},{"dx":7,"dy":1},{"dx":5,"dy":0},{"dx":3,"dy":1},{"dx":5,"dy":0},{"dx":5,"dy":1},{"dx":6,"dy":2},{"dx":5,"dy":2},{"dx":5,"dy":1},{"dx":3,"dy":1},{"dx":5,"dy":3},{"dx":1,"dy":0},{"dx":4,"dy":3},{"dx":4,"dy":4},{"dx":0,"dy":0},{"dx":1,"dy":1},{"dx":2,"dy":5},{"dx":0,"dy":1},{"dx":1,"dy":1},{"dx":1,"dy":5},{"dx":2,"dy":6},{"dx":0,"dy":1},{"dx":1,"dy":5},{"dx":1,"dy":5},{"dx":1,"dy":6},{"dx":1,"dy":5},{"dx":0,"dy":0},{"dx":1,"dy":5},{"dx":1,"dy":6},{"dx":1,"dy":7},{"dx":1,"dy":6},{"dx":0,"dy":7},{"dx":1,"dy":5},{"dx":0,"dy":4},{"dx":3,"dy":11},{"dx":1,"dy":6},{"dx":2,"dy":7},{"dx":3,"dy":6},{"dx":3,"dy":5},{"dx":3,"dy":4},{"dx":7,"dy":6},{"dx":4,"dy":2},{"dx":5,"dy":2},{"dx":5,"dy":1},{"dx":4,"dy":1},{"dx":6,"dy":1},{"dx":5,"dy":1},{"dx":5,"dy":0},{"dx":1,"dy":0},{"dx":4,"dy":0},{"dx":10,"dy":-1},{"dx":1,"dy":0},{"dx":5,"dy":-1},{"dx":6,"dy":-2},{"dx":4,"dy":-2},{"dx":6,"dy":-3},{"dx":11,"dy":-4},{"dx":4,"dy":-1},{"dx":5,"dy":-4},{"dx":4,"dy":-3},{"dx":3,"dy":-2},{"dx":4,"dy":-3},{"dx":3,"dy":-3},{"dx":5,"dy":-4},{"dx":0,"dy":-1},{"dx":4,"dy":-2},{"dx":1,"dy":-1},{"dx":0,"dy":0},{"dx":0,"dy":0},{"dx":0,"dy":0},{"dx":0,"dy":0},{"dx":1,"dy":-1},{"dx":1,"dy":0},{"dx":1,"dy":0},{"dx":3,"dy":2},{"dx":4,"dy":4},{"dx":0,"dy":1},{"dx":3,"dy":5},{"dx":2,"dy":4},{"dx":3,"dy":7},{"dx":3,"dy":4},{"dx":2,"dy":5},{"dx":1,"dy":6},{"dx":2,"dy":11},{"dx":0,"dy":6},{"dx":0,"dy":5},{"dx":-1,"dy":7},{"dx":-1,"dy":6},{"dx":-3,"dy":6},{"dx":-9,"dy":16},{"dx":-3,"dy":4},{"dx":-4,"dy":7},{"dx":-6,"dy":9},{"dx":-3,"dy":4},{"dx":-2,"dy":4},{"dx":-2,"dy":5},{"dx":-3,"dy":6},{"dx":-1,"dy":5},{"dx":-6,"dy":8},{"dx":-4,"dy":5},{"dx":-3,"dy":3},{"dx":-5,"dy":4},{"dx":-5,"dy":3},{"dx":-4,"dy":3},{"dx":-5,"dy":2},{"dx":-6,"dy":2},{"dx":-4,"dy":1},{"dx":-10,"dy":2},{"dx":-6,"dy":1},{"dx":-5,"dy":1},{"dx":-9,"dy":1},{"dx":-7,"dy":0},{"dx":-5,"dy":0},{"dx":-10,"dy":0},{"dx":-5,"dy":-1},{"dx":-4,"dy":-1},{"dx":-4,"dy":-2},{"dx":-5,"dy":-2},{"dx":-4,"dy":-2},{"dx":-5,"dy":-3},{"dx":-4,"dy":-3},{"dx":-5,"dy":-5},{"dx":-4,"dy":-3},{"dx":-3,"dy":-3},{"dx":-5,"dy":-3},{"dx":-13,"dy":-4},{"dx":-8,"dy":-2},{"dx":-7,"dy":-3},{"dx":-6,"dy":-1},{"dx":-8,"dy":-1},{"dx":-7,"dy":-1},{"dx":-12,"dy":0},{"dx":-4,"dy":0},{"dx":-4,"dy":0},{"dx":-7,"dy":0},{"dx":-5,"dy":2},{"dx":-1,"dy":0},{"dx":-4,"dy":2},{"dx":-1,"dy":1},{"dx":-1,"dy":0},{"dx":-2,"dy":2},{"dx":-1,"dy":1},{"dx":0,"dy":1},{"dx":-2,"dy":5},{"dx":-1,"dy":1},{"dx":-1,"dy":6},{"dx":-1,"dy":2},{"dx":-1,"dy":5},{"dx":-2,"dy":4},{"dx":-2,"dy":7},{"dx":0,"dy":0},{"dx":-1,"dy":6},{"dx":0,"dy":6},{"dx":-1,"dy":4},{"dx":0,"dy":1},{"dx":0,"dy":1},{"dx":0,"dy":5},{"dx":0,"dy":1},{"dx":0,"dy":1},{"dx":1,"dy":2},{"dx":3,"dy":3},{"dx":0,"dy":0},{"dx":4,"dy":3},{"dx":1,"dy":1},{"dx":5,"dy":2},{"dx":4,"dy":1},{"dx":0,"dy":0},{"dx":4,"dy":2},{"dx":1,"dy":0},{"dx":5,"dy":1},{"dx":4,"dy":0},{"dx":6,"dy":1},{"dx":4,"dy":0},{"dx":5,"dy":0},{"dx":5,"dy":0},{"dx":4,"dy":0},{"dx":6,"dy":0},{"dx":6,"dy":0},{"dx":4,"dy":0},{"dx":6,"dy":0},{"dx":11,"dy":-1},{"dx":6,"dy":0},{"dx":6,"dy":1},{"dx":6,"dy":1},{"dx":5,"dy":1},{"dx":4,"dy":0},{"dx":9,"dy":3},{"dx":1,"dy":0},{"dx":4,"dy":2},{"dx":4,"dy":3},{"dx":0,"dy":0},{"dx":1,"dy":1},{"dx":1,"dy":1},{"dx":0,"dy":1},{"dx":1,"dy":1},{"dx":0,"dy":1},{"dx":0,"dy":1},{"dx":-3,"dy":5},{"dx":-4,"dy":4},{"dx":-5,"dy":2},{"dx":-6,"dy":2},{"dx":-4,"dy":3},{"dx":-5,"dy":2},{"dx":-5,"dy":1},{"dx":-6,"dy":1},{"dx":-6,"dy":0},{"dx":-6,"dy":0},{"dx":-12,"dy":0},{"dx":-4,"dy":0},{"dx":-5,"dy":0},{"dx":-6,"dy":0},{"dx":-6,"dy":-1},{"dx":-8,"dy":-1},{"dx":-13,"dy":-2},{"dx":-5,"dy":0},{"dx":-7,"dy":-2},{"dx":-6,"dy":-1},{"dx":-6,"dy":-1},{"dx":-6,"dy":-2},{"dx":-11,"dy":-3},{"dx":-7,"dy":-2},{"dx":-6,"dy":-2},{"dx":-6,"dy":-3},{"dx":-3,"dy":-2},{"dx":-3,"dy":-4},{"dx":-7,"dy":-4},{"dx":-4,"dy":-3},{"dx":-5,"dy":-4},{"dx":-5,"dy":-2},{"dx":-8,"dy":-2},{"dx":-6,"dy":-3},{"dx":-8,"dy":-2},{"dx":-18,"dy":-3},{"dx":-10,"dy":-2},{"dx":-10,"dy":-1},{"dx":-14,"dy":-3},{"dx":-10,"dy":-1},{"dx":-7,"dy":0},{"dx":-7,"dy":-1},{"dx":-6,"dy":-1},{"dx":-7,"dy":-1},{"dx":-12,"dy":-2},{"dx":-5,"dy":-1},{"dx":-7,"dy":-1},{"dx":-6,"dy":-1},{"dx":-5,"dy":-1},{"dx":-6,"dy":0},{"dx":-14,"dy":0},{"dx":-6,"dy":0},{"dx":-6,"dy":0},{"dx":-8,"dy":1},{"dx":-5,"dy":0},{"dx":-5,"dy":1},{"dx":-11,"dy":2},{"dx":-7,"dy":1},{"dx":-7,"dy":2},{"dx":-6,"dy":0},{"dx":-5,"dy":2},{"dx":-6,"dy":1},{"dx":-10,"dy":2},{"dx":-6,"dy":1},{"dx":-4,"dy":1},{"dx":-4,"dy":0},{"dx":-5,"dy":1},{"dx":-5,"dy":2},{"dx":-10,"dy":2},{"dx":0,"dy":0},{"dx":-4,"dy":2},{"dx":-5,"dy":1},{"dx":-1,"dy":0},{"dx":-1,"dy":1},{"dx":-1,"dy":1},{"dx":-1,"dy":1},{"dx":-1,"dy":1},{"dx":-1,"dy":1},{"dx":-1,"dy":1},{"dx":0,"dy":0},{"dx":0,"dy":0},{"dx":0,"dy":1},{"dx":0,"dy":1},{"dx":3,"dy":4},{"dx":0,"dy":1},{"dx":3,"dy":2},{"dx":3,"dy":2},{"dx":5,"dy":3},{"dx":5,"dy":1},{"dx":6,"dy":1},{"dx":9,"dy":1},{"dx":5,"dy":1},{"dx":5,"dy":1},{"dx":4,"dy":0},{"dx":5,"dy":1},{"dx":5,"dy":1},{"dx":13,"dy":0},{"dx":6,"dy":0},{"dx":6,"dy":1},{"dx":7,"dy":0},{"dx":11,"dy":0},{"dx":6,"dy":0},{"dx":13,"dy":0},{"dx":9,"dy":0},{"dx":9,"dy":0},{"dx":10,"dy":0},{"dx":11,"dy":-2},{"dx":10,"dy":-1},{"dx":18,"dy":-2},{"dx":9,"dy":-1},{"dx":14,"dy":-1},{"dx":12,"dy":0},{"dx":11,"dy":0},{"dx":12,"dy":-1},{"dx":22,"dy":0},{"dx":12,"dy":-2},{"dx":11,"dy":-1},{"dx":20,"dy":0},{"dx":12,"dy":0},{"dx":17,"dy":0},{"dx":12,"dy":0},{"dx":10,"dy":0},{"dx":8,"dy":0},{"dx":8,"dy":0},{"dx":8,"dy":1},{"dx":8,"dy":1},{"dx":12,"dy":2},{"dx":5,"dy":1},{"dx":1,"dy":0},{"dx":9,"dy":4},{"dx":5,"dy":1},{"dx":5,"dy":2},{"dx":5,"dy":1},{"dx":5,"dy":1},{"dx":4,"dy":1},{"dx":5,"dy":2},{"dx":0,"dy":0},{"dx":4,"dy":2},{"dx":10,"dy":4},{"dx":4,"dy":2},{"dx":1,"dy":0},{"dx":6,"dy":2},{"dx":5,"dy":2},{"dx":5,"dy":3},{"dx":4,"dy":3},{"dx":1,"dy":0},{"dx":4,"dy":3},{"dx":4,"dy":2},{"dx":5,"dy":3},{"dx":3,"dy":2},{"dx":5,"dy":3},{"dx":5,"dy":3},{"dx":0,"dy":1},{"dx":9,"dy":4},{"dx":3,"dy":1},{"dx":5,"dy":2},{"dx":6,"dy":1},{"dx":5,"dy":2},{"dx":4,"dy":0},{"dx":9,"dy":1},{"dx":5,"dy":1},{"dx":5,"dy":1},{"dx":7,"dy":1},{"dx":5,"dy":0},{"dx":5,"dy":0},{"dx":11,"dy":1},{"dx":7,"dy":2},{"dx":6,"dy":0},{"dx":5,"dy":1},{"dx":4,"dy":0},{"dx":7,"dy":0},{"dx":4,"dy":0},{"dx":6,"dy":0},{"dx":4,"dy":0},{"dx":8,"dy":1},{"dx":5,"dy":0},{"dx":5,"dy":1},{"dx":4,"dy":1},{"dx":1,"dy":0},{"dx":5,"dy":0},{"dx":10,"dy":1},{"dx":5,"dy":1},{"dx":0,"dy":0},{"dx":5,"dy":0},{"dx":4,"dy":0},{"dx":0,"dy":0},{"dx":5,"dy":0},{"dx":1,"dy":0},{"dx":5,"dy":0},{"dx":1,"dy":0},{"dx":4,"dy":0}],"trial_type":"plugin-moving-dots-2","trial_index":12,"plugin_version":"0.0.1","time_elapsed":69306},{"task":"fixation","rt":4782,"stimulus":"<div style=\"font-size:60px;\">+</div>","response":" ","trial_type":"html-keyboard-response","trial_index":13,"plugin_version":"2.1.0","time_elapsed":74091},{"task":"movingdots","control_change":0,"mouse_data":[{"dx":0,"dy":0},{"dx":0,"dy":0},{"dx":0,"dy":0},{"dx":0,"dy":0},{"dx":0,"dy":0},{"dx":0,"dy":0},{"dx":0,"dy":0},{"dx":0,"dy":0},{"dx":0,"dy":0},{"dx":0,"dy":0},{"dx":0,"dy":0},{"dx":0,"dy":0},{"dx":0,"dy":0},{"dx":0,"dy":0},{"dx":0,"dy":0},{"dx":0,"dy":0},{"dx":0,"dy":0},{"dx":0,"dy":0},{"dx":0,"dy":0},{"dx":0,"dy":0},{"dx":0,"dy":0},{"dx":0,"dy":0},{"dx":0,"dy":0},{"dx":0,"dy":0},{"dx":0,"dy":0},{"dx":0,"dy":0},{"dx":0,"dy":0},{"dx":0,"dy":0},{"dx":2,"dy":-3},{"dx":5,"dy":-6},{"dx":4,"dy":-5},{"dx":6,"dy":-6},{"dx":3,"dy":-4},{"dx":0,"dy":-1},{"dx":1,"dy":-2},{"dx":4,"dy":-7},{"dx":2,"dy":-5},{"dx":2,"dy":-5},{"dx":1,"dy":-1},{"dx":1,"dy":-4},{"dx":1,"dy":-1},{"dx":0,"dy":0},{"dx":0,"dy":-1},{"dx":4,"dy":-5},{"dx":3,"dy":-5},{"dx":0,"dy":0},{"dx":3,"dy":-4},{"dx":1,"dy":-1},{"dx":2,"dy":-3},{"dx":4,"dy":-5},{"dx":4,"dy":-4},{"dx":1,"dy":-1},{"dx":6,"dy":-7},{"dx":5,"dy":-3},{"dx":3,"dy":-3},{"dx":7,"dy":-5},{"dx":4,"dy":-4},{"dx":0,"dy":0},{"dx":5,"dy":-2},{"dx":5,"dy":-3},{"dx":5,"dy":-3},{"dx":11,"dy":-6},{"dx":7,"dy":-3},{"dx":7,"dy":-3},{"dx":12,"dy":-6},{"dx":5,"dy":-2},{"dx":7,"dy":-3},{"dx":5,"dy":-1},{"dx":4,"dy":-2},{"dx":5,"dy":-1},{"dx":6,"dy":-2},{"dx":5,"dy":-2},{"dx":4,"dy":-1},{"dx":4,"dy":0},{"dx":6,"dy":-1},{"dx":0,"dy":0},{"dx":4,"dy":-1},{"dx":5,"dy":-1},{"dx":4,"dy":0},{"dx":1,"dy":0},{"dx":5,"dy":0},{"dx":0,"dy":0},{"dx":4,"dy":1},{"dx":5,"dy":1},{"dx":6,"dy":2},{"dx":5,"dy":1},{"dx":0,"dy":0},{"dx":5,"dy":2},{"dx":8,"dy":4},{"dx":1,"dy":0},{"dx":5,"dy":3},{"dx":5,"dy":2},{"dx":5,"dy":3},{"dx":4,"dy":2},{"dx":4,"dy":3},{"dx":4,"dy":3},{"dx":4,"dy":4},{"dx":4,"dy":4},{"dx":3,"dy":3},{"dx":4,"dy":2},{"dx":6,"dy":3},{"dx":4,"dy":2},{"dx":1,"dy":1},{"dx":5,"dy":2},{"dx":4,"dy":1},{"dx":5,"dy":1},{"dx":6,"dy":1},{"dx":5,"dy":2},{"dx":6,"dy":1},{"dx":10,"dy":2},{"dx":4,"dy":0},{"dx":4,"dy":1},{"dx":6,"dy":0},{"dx":10,"dy":1},{"dx":5,"dy":0},{"dx":12,"dy":0},{"dx":5,"dy":0},{"dx":8,"dy":0},{"dx":12,"dy":0},{"dx":10,"dy":-2},{"dx":9,"dy":-2},{"dx":10,"dy":-3},{"dx":5,"dy":-2},{"dx":5,"dy":-2},{"dx":8,"dy":-4},{"dx":3,"dy":-3},{"dx":4,"dy":-3},{"dx":3,"dy":-5},{"dx":3,"dy":-4},{"dx":2,"dy":-5},{"dx":3,"dy":-6},{"dx":0,"dy":-1},{"dx":1,"dy":-5},{"dx":2,"dy":-5},{"dx":0,"dy":-1},{"dx":1,"dy":-6},{"dx":1,"dy":-1},{"dx":0,"dy":-5},{"dx":1,"dy":-7},{"dx":1,"dy":-5},{"dx":0,"dy":-1},{"dx":0,"dy":-5},{"dx":0,"dy":-6},{"dx":0,"dy":-6},{"dx":-1,"dy":-1},{"dx":-5,"dy":-10},{"dx":-2,"dy":-5},{"dx":-3,"dy":-4},{"dx":-4,"dy":-4},{"dx":-4,"dy":-2},{"dx":-5,"dy":-3},{"dx":-11,"dy":-3},{"dx":-4,"dy":-2},{"dx":-6,"dy":-2},{"dx":-5,"dy":-1},{"dx":-11,"dy":-2},{"dx":-12,"dy":-2},{"dx":-15,"dy":-2},{"dx":-9,"dy":0},{"dx":-9,"dy":0},{"dx":-15,"dy":0},{"dx":-9,"dy":0},{"dx":-9,"dy":1},{"dx":-13,"dy":2},{"dx":-10,"dy":3},{"dx":-5,"dy":2},{"dx":-13,"dy":4},{"dx":-5,"dy":3},{"dx":-4,"dy":2},{"dx":-1,"dy":1},{"dx":-1,"dy":5},{"dx":0,"dy":0},{"dx":1,"dy":6},{"dx":5,"dy":4},{"dx":5,"dy":4},{"dx":20,"dy":9},{"dx":10,"dy":4},{"dx":7,"dy":3},{"dx":13,"dy":4},{"dx":12,"dy":2},{"dx":13,"dy":2},{"dx":12,"dy":2},{"dx":10,"dy":0},{"dx":10,"dy":1},{"dx":9,"dy":0},{"dx":7,"dy":0},{"dx":6,"dy":0},{"dx":16,"dy":-1},{"dx":7,"dy":0},{"dx":6,"dy":0},{"dx":9,"dy":0},{"dx":16,"dy":3},{"dx":10,"dy":1},{"dx":9,"dy":4},{"dx":17,"dy":6},{"dx":10,"dy":4},{"dx":5,"dy":2},{"dx":13,"dy":7},{"dx":6,"dy":2},{"dx":10,"dy":3},{"dx":13,"dy":6},{"dx":6,"dy":2},{"dx":7,"dy":4},{"dx":9,"dy":6},{"dx":6,"dy":3},{"dx":10,"dy":3},{"dx":12,"dy":2},{"dx":8,"dy":0},{"dx":6,"dy":-2},{"dx":12,"dy":-2},{"dx":6,"dy":-5},{"dx":5,"dy":-4},{"dx":5,"dy":-5},{"dx":5,"dy":-4},{"dx":5,"dy":-6},{"dx":8,"dy":-8},{"dx":0,"dy":-1},{"dx":3,"dy":-6},{"dx":3,"dy":-6},{"dx":2,"dy":-5},{"dx":1,"dy":-5},{"dx":3,"dy":-7},{"dx":2,"dy":-6},{"dx":2,"dy":-8},{"dx":2,"dy":-6},{"dx":0,"dy":-5},{"dx":1,"dy":-6},{"dx":0,"dy":-1},{"dx":0,"dy":-5},{"dx":0,"dy":-1},{"dx":-1,"dy":-6},{"dx":-3,"dy":-5},{"dx":-3,"dy":-4},{"dx":-4,"dy":-5},{"dx":-5,"dy":-6},{"dx":-4,"dy":-4},{"dx":-3,"dy":-5},{"dx":0,"dy":-1},{"dx":-3,"dy":-4},{"dx":-1,"dy":-2},{"dx":-1,"dy":-5},{"dx":-1,"dy":-6},{"dx":-1,"dy":-5},{"dx":-1,"dy":-7},{"dx":-1,"dy":-6},{"dx":-2,"dy":-6},{"dx":-2,"dy":-5},{"dx":-2,"dy":-6},{"dx":-3,"dy":-5},{"dx":0,"dy":-1},{"dx":-2,"dy":-5},{"dx":-1,"dy":-6},{"dx":-4,"dy":-4},{"dx":-3,"dy":-2},{"dx":-1,"dy":-1},{"dx":0,"dy":0},{"dx":0,"dy":0},{"dx":0,"dy":0},{"dx":0,"dy":0},{"dx":0,"dy":0},{"dx":0,"dy":0},{"dx":0,"dy":0},{"dx":0,"dy":0},{"dx":0,"dy":0},{"dx":0,"dy":0},{"dx":0,"dy":0},{"dx":0,"dy":0},{"dx":0,"dy":0},{"dx":0,"dy":0},{"dx":0,"dy":0},{"dx":3,"dy":-1},{"dx":10,"dy":-2},{"dx":15,"dy":-2},{"dx":5,"dy":-1},{"dx":6,"dy":0},{"dx":5,"dy":-1},{"dx":3,"dy":0},{"dx":1,"dy":0},{"dx":0,"dy":0},{"dx":2,"dy":0},{"dx":1,"dy":0},{"dx":1,"dy":0},{"dx":1,"dy":0},{"dx":6,"dy":0},{"dx":3,"dy":0},{"dx":10,"dy":1},{"dx":5,"dy":0},{"dx":4,"dy":0},{"dx":1,"dy":1},{"dx":0,"dy":0},{"dx":1,"dy":0},{"dx":5,"dy":1},{"dx":4,"dy":1},{"dx":0,"dy":0},{"dx":5,"dy":1},{"dx":4,"dy":0},{"dx":4,"dy":1},{"dx":12,"dy":2},{"dx":5,"dy":1},{"dx":6,"dy":2},{"dx":5,"dy":1},{"dx":1,"dy":1},{"dx":4,"dy":1},{"dx":3,"dy":3},{"dx":1,"dy":0},{"dx":3,"dy":3},{"dx":3,"dy":3},{"dx":1,"dy":0},{"dx":3,"dy":3},{"dx":8,"dy":6},{"dx":4,"dy":4},{"dx":4,"dy":3},{"dx":4,"dy":4},{"dx":1,"dy":0},{"dx":4,"dy":4},{"dx":4,"dy":2},{"dx":1,"dy":1},{"dx":1,"dy":0},{"dx":0,"dy":1},{"dx":1,"dy":1},{"dx":0,"dy":0},{"dx":-4,"dy":4},{"dx":-6,"dy":2},{"dx":-8,"dy":4},{"dx":-5,"dy":4},{"dx":-6,"dy":4},{"dx":-4,"dy":2},{"dx":-12,"dy":8},{"dx":-5,"dy":3},{"dx":-1,"dy":0},{"dx":-5,"dy":3},{"dx":-4,"dy":0},{"dx":-6,"dy":0},{"dx":-9,"dy":-3},{"dx":-6,"dy":-2},{"dx":-2,"dy":0},{"dx":-5,"dy":-2},{"dx":-5,"dy":-2},{"dx":-5,"dy":-2},{"dx":-6,"dy":-3},{"dx":-3,"dy":-2},{"dx":-5,"dy":-1},{"dx":-4,"dy":-3},{"dx":-4,"dy":-2},{"dx":-1,"dy":0},{"dx":-8,"dy":-6},{"dx":-3,"dy":-3},{"dx":-4,"dy":-3},{"dx":-1,"dy":-1},{"dx":-4,"dy":-2},{"dx":-4,"dy":-4},{"dx":-5,"dy":-2},{"dx":-5,"dy":-3},{"dx":-6,"dy":-3},{"dx":-5,"dy":-2},{"dx":-4,"dy":-1},{"dx":-1,"dy":-1},{"dx":-10,"dy":-4},{"dx":-5,"dy":-2},{"dx":-5,"dy":0},{"dx":-6,"dy":-1},{"dx":-5,"dy":0},{"dx":-5,"dy":-1},{"dx":-8,"dy":-1},{"dx":-5,"dy":0},{"dx":-5,"dy":0},{"dx":-5,"dy":0},{"dx":-4,"dy":0},{"dx":-7,"dy":0},{"dx":-6,"dy":0},{"dx":-5,"dy":1},{"dx":-4,"dy":0},{"dx":-8,"dy":2},{"dx":-5,"dy":2},{"dx":-1,"dy":0},{"dx":-5,"dy":1},{"dx":-6,"dy":3},{"dx":0,"dy":0},{"dx":-5,"dy":2},{"dx":-6,"dy":2},{"dx":0,"dy":1},{"dx":-4,"dy":2},{"dx":-1,"dy":1},{"dx":-1,"dy":0},{"dx":0,"dy":1},{"dx":-3,"dy":5},{"dx":-1,"dy":0},{"dx":-3,"dy":4},{"dx":-1,"dy":2},{"dx":0,"dy":1},{"dx":-1,"dy":2},{"dx":-1,"dy":1},{"dx":0,"dy":1},{"dx":0,"dy":1},{"dx":0,"dy":2},{"dx":1,"dy":4},{"dx":1,"dy":0},{"dx":5,"dy":8},{"dx":3,"dy":3},{"dx":4,"dy":4},{"dx":4,"dy":2},{"dx":3,"dy":3},{"dx":5,"dy":3},{"dx":7,"dy":5},{"dx":6,"dy":3},{"dx":4,"dy":3},{"dx":5,"dy":3},{"dx":4,"dy":3},{"dx":0,"dy":0},{"dx":3,"dy":3},{"dx":4,"dy":4},{"dx":0,"dy":0},{"dx":4,"dy":5},{"dx":3,"dy":4},{"dx":5,"dy":4},{"dx":5,"dy":5},{"dx":3,"dy":5},{"dx":3,"dy":4},{"dx":3,"dy":3},{"dx":2,"dy":4},{"dx":5,"dy":9},{"dx":0,"dy":1},{"dx":3,"dy":6},{"dx":2,"dy":6},{"dx":2,"dy":5},{"dx":1,"dy":0},{"dx":1,"dy":4},{"dx":1,"dy":5},{"dx":1,"dy":6},{"dx":0,"dy":1},{"dx":1,"dy":5},{"dx":0,"dy":6},{"dx":0,"dy":0},{"dx":-3,"dy":9},{"dx":-2,"dy":3},{"dx":-2,"dy":5},{"dx":-3,"dy":5},{"dx":-2,"dy":4},{"dx":-2,"dy":4},{"dx":-6,"dy":7},{"dx":-3,"dy":4},{"dx":-3,"dy":4},{"dx":-3,"dy":5},{"dx":-3,"dy":4},{"dx":0,"dy":1},{"dx":-1,"dy":1},{"dx":-1,"dy":0},{"dx":-4,"dy":6},{"dx":-3,"dy":4},{"dx":-3,"dy":3},{"dx":-4,"dy":3},{"dx":-1,"dy":1},{"dx":0,"dy":0}],"trial_type":"plugin-moving-dots-2","trial_index":14,"plugin_version":"0.0.1","time_elapsed":81604},{"task":"fixation","rt":3381,"stimulus":"<div style=\"font-size:60px;\">+</div>","response":" ","trial_type":"html-keyboard-response","trial_index":15,"plugin_version":"2.1.0","time_elapsed":84986},{"task":"movingdots","control_change":0,"mouse_data":[{"dx":0,"dy":0},{"dx":0,"dy":0},{"dx":0,"dy":0},{"dx":0,"dy":0},{"dx":0,"dy":0},{"dx":0,"dy":0},{"dx":0,"dy":0},{"dx":0,"dy":0},{"dx":0,"dy":0},{"dx":0,"dy":0},{"dx":0,"dy":0},{"dx":0,"dy":0},{"dx":0,"dy":0},{"dx":0,"dy":0},{"dx":0,"dy":0},{"dx":0,"dy":0},{"dx":0,"dy":0},{"dx":0,"dy":0},{"dx":0,"dy":0},{"dx":0,"dy":0},{"dx":0,"dy":0},{"dx":0,"dy":0},{"dx":0,"dy":0},{"dx":0,"dy":0},{"dx":0,"dy":0},{"dx":0,"dy":0},{"dx":0,"dy":0},{"dx":0,"dy":0},{"dx":0,"dy":0},{"dx":0,"dy":0},{"dx":0,"dy":0},{"dx":0,"dy":0},{"dx":0,"dy":0},{"dx":0,"dy":0},{"dx":0,"dy":0},{"dx":0,"dy":0},{"dx":0,"dy":0},{"dx":0,"dy":0},{"dx":0,"dy":0},{"dx":0,"dy":0},{"dx":0,"dy":0},{"dx":0,"dy":0},{"dx":0,"dy":0},{"dx":0,"dy":0},{"dx":0,"dy":0},{"dx":0,"dy":0},{"dx":0,"dy":0},{"dx":0,"dy":0},{"dx":0,"dy":0},{"dx":0,"dy":0},{"dx":0,"dy":0},{"dx":0,"dy":0},{"dx":0,"dy":0},{"dx":0,"dy":0},{"dx":0,"dy":0},{"dx":0,"dy":0},{"dx":0,"dy":0},{"dx":0,"dy":0},{"dx":0,"dy":0},{"dx":0,"dy":0},{"dx":0,"dy":0},{"dx":0,"dy":0},{"dx":0,"dy":0},{"dx":0,"dy":0},{"dx":0,"dy":0},{"dx":0,"dy":0},{"dx":0,"dy":0},{"dx":0,"dy":0},{"dx":0,"dy":0},{"dx":0,"dy":0},{"dx":0,"dy":0},{"dx":0,"dy":0},{"dx":0,"dy":0},{"dx":0,"dy":0},{"dx":0,"dy":0},{"dx":0,"dy":0},{"dx":0,"dy":0},{"dx":0,"dy":0},{"dx":0,"dy":0},{"dx":0,"dy":0},{"dx":0,"dy":0},{"dx":0,"dy":0},{"dx":0,"dy":0},{"dx":0,"dy":0},{"dx":0,"dy":0},{"dx":0,"dy":0},{"dx":0,"dy":0},{"dx":0,"dy":0},{"dx":0,"dy":0},{"dx":0,"dy":0},{"dx":0,"dy":0},{"dx":0,"dy":0},{"dx":0,"dy":0},{"dx":0,"dy":0},{"dx":0,"dy":0},{"dx":0,"dy":0},{"dx":0,"dy":0},{"dx":0,"dy":0},{"dx":0,"dy":0},{"dx":0,"dy":0},{"dx":0,"dy":0},{"dx":0,"dy":0},{"dx":0,"dy":0},{"dx":0,"dy":0},{"dx":0,"dy":0},{"dx":0,"dy":0},{"dx":0,"dy":0},{"dx":0,"dy":0},{"dx":0,"dy":0},{"dx":0,"dy":0},{"dx":0,"dy":0},{"dx":0,"dy":0},{"dx":-2,"dy":-5},{"dx":-2,"dy":-6},{"dx":-2,"dy":-4},{"dx":-3,"dy":-5},{"dx":0,"dy":0},{"dx":-4,"dy":-5},{"dx":0,"dy":-1},{"dx":-3,"dy":-4},{"dx":-1,"dy":0},{"dx":-1,"dy":-2},{"dx":-1,"dy":-1},{"dx":0,"dy":-1},{"dx":0,"dy":-1},{"dx":0,"dy":0},{"dx":0,"dy":0},{"dx":0,"dy":0},{"dx":0,"dy":0},{"dx":0,"dy":0},{"dx":0,"dy":0},{"dx":0,"dy":0},{"dx":0,"dy":0},{"dx":0,"dy":0},{"dx":0,"dy":0},{"dx":0,"dy":0},{"dx":0,"dy":0},{"dx":0,"dy":0},{"dx":0,"dy":0},{"dx":0,"dy":0},{"dx":0,"dy":0},{"dx":0,"dy":0},{"dx":0,"dy":0},{"dx":-3,"dy":-7},{"dx":-3,"dy":-9},{"dx":-3,"dy":-9},{"dx":-2,"dy":-8},{"dx":-3,"dy":-7},{"dx":-7,"dy":-11},{"dx":-3,"dy":-5},{"dx":-4,"dy":-5},{"dx":-3,"dy":-3},{"dx":-3,"dy":-4},{"dx":-5,"dy":-3},{"dx":-6,"dy":-6},{"dx":-4,"dy":-2},{"dx":-5,"dy":-2},{"dx":-4,"dy":-2},{"dx":-6,"dy":0},{"dx":-4,"dy":0},{"dx":-5,"dy":0},{"dx":-6,"dy":0},{"dx":-5,"dy":2},{"dx":-10,"dy":4},{"dx":-4,"dy":1},{"dx":-4,"dy":3},{"dx":-5,"dy":3},{"dx":-5,"dy":4},{"dx":-4,"dy":3},{"dx":-3,"dy":4},{"dx":-3,"dy":4},{"dx":0,"dy":0},{"dx":-3,"dy":5},{"dx":-2,"dy":4},{"dx":0,"dy":0},{"dx":-1,"dy":7},{"dx":-1,"dy":1},{"dx":0,"dy":6},{"dx":-2,"dy":5},{"dx":0,"dy":1},{"dx":-1,"dy":5},{"dx":-1,"dy":6},{"dx":0,"dy":7},{"dx":0,"dy":5},{"dx":0,"dy":4},{"dx":-1,"dy":6},{"dx":0,"dy":5},{"dx":-1,"dy":13},{"dx":-1,"dy":5},{"dx":-1,"dy":7},{"dx":-1,"dy":7},{"dx":-1,"dy":7},{"dx":-3,"dy":7},{"dx":-4,"dy":12},{"dx":-3,"dy":8},{"dx":-3,"dy":9},{"dx":-5,"dy":11},{"dx":-3,"dy":8},{"dx":-4,"dy":7},{"dx":-7,"dy":15},{"dx":-3,"dy":6},{"dx":-4,"dy":6},{"dx":-4,"dy":6},{"dx":-4,"dy":5},{"dx":-3,"dy":5},{"dx":-6,"dy":7},{"dx":-6,"dy":6},{"dx":-4,"dy":5},{"dx":-5,"dy":5},{"dx":-4,"dy":3},{"dx":-4,"dy":2},{"dx":-4,"dy":3},{"dx":-6,"dy":1},{"dx":-4,"dy":1},{"dx":-6,"dy":0},{"dx":-4,"dy":0},{"dx":-1,"dy":0},{"dx":-5,"dy":0},{"dx":-5,"dy":-1},{"dx":-5,"dy":-3},{"dx":-3,"dy":-3},{"dx":-3,"dy":-6},{"dx":-3,"dy":-4},{"dx":-2,"dy":-5},{"dx":-2,"dy":-5},{"dx":-2,"dy":-6},{"dx":-3,"dy":-16},{"dx":0,"dy":-9},{"dx":-1,"dy":-6},{"dx":0,"dy":-6},{"dx":0,"dy":-6},{"dx":0,"dy":-13},{"dx":1,"dy":-11},{"dx":0,"dy":-6},{"dx":1,"dy":-6},{"dx":1,"dy":-14},{"dx":1,"dy":-10},{"dx":0,"dy":-9},{"dx":0,"dy":-8},{"dx":1,"dy":-7},{"dx":1,"dy":-8},{"dx":0,"dy":-18},{"dx":0,"dy":-7},{"dx":0,"dy":-5},{"dx":-1,"dy":-6},{"dx":-1,"dy":-5},{"dx":-1,"dy":-5},{"dx":-1,"dy":-11},{"dx":0,"dy":-1},{"dx":-2,"dy":-6},{"dx":-2,"dy":-4},{"dx":-1,"dy":-2},{"dx":-2,"dy":-3},{"dx":0,"dy":-1},{"dx":-3,"dy":-4},{"dx":-3,"dy":-5},{"dx":-1,"dy":0},{"dx":-3,"dy":-5},{"dx":0,"dy":-1},{"dx":-4,"dy":-3},{"dx":-1,"dy":-1},{"dx":-4,"dy":-3},{"dx":-1,"dy":-1},{"dx":-5,"dy":-2},{"dx":-5,"dy":0},{"dx":-4,"dy":0},{"dx":-3,"dy":0},{"dx":-6,"dy":1},{"dx":-4,"dy":2},{"dx":-9,"dy":5},{"dx":-5,"dy":3},{"dx":-5,"dy":5},{"dx":-4,"dy":4},{"dx":-3,"dy":3},{"dx":-2,"dy":5},{"dx":-2,"dy":5},{"dx":-2,"dy":5},{"dx":-2,"dy":6},{"dx":-1,"dy":6},{"dx":-2,"dy":6},{"dx":0,"dy":0},{"dx":-1,"dy":5},{"dx":0,"dy":5},{"dx":-1,"dy":5},{"dx":0,"dy":5},{"dx":0,"dy":6},{"dx":0,"dy":6},{"dx":0,"dy":6},{"dx":-1,"dy":6},{"dx":0,"dy":1},{"dx":0,"dy":6},{"dx":-1,"dy":5},{"dx":0,"dy":6},{"dx":-1,"dy":6},{"dx":0,"dy":8},{"dx":0,"dy":0},{"dx":-1,"dy":6},{"dx":0,"dy":5},{"dx":0,"dy":0},{"dx":-1,"dy":7},{"dx":0,"dy":0},{"dx":0,"dy":6},{"dx":0,"dy":1},{"dx":0,"dy":5},{"dx":0,"dy":5},{"dx":0,"dy":7},{"dx":-1,"dy":0},{"dx":0,"dy":6},{"dx":0,"dy":5},{"dx":0,"dy":6},{"dx":0,"dy":0},{"dx":-1,"dy":2},{"dx":0,"dy":2},{"dx":0,"dy":1},{"dx":0,"dy":0},{"dx":0,"dy":0},{"dx":0,"dy":0},{"dx":0,"dy":0},{"dx":0,"dy":0},{"dx":-1,"dy":-5},{"dx":0,"dy":-7},{"dx":0,"dy":-2},{"dx":0,"dy":0},{"dx":0,"dy":0},{"dx":0,"dy":0},{"dx":0,"dy":0},{"dx":0,"dy":0},{"dx":0,"dy":0},{"dx":0,"dy":0},{"dx":0,"dy":0},{"dx":0,"dy":0},{"dx":0,"dy":0},{"dx":0,"dy":0},{"dx":0,"dy":0},{"dx":0,"dy":0},{"dx":0,"dy":0},{"dx":0,"dy":0},{"dx":0,"dy":0},{"dx":0,"dy":0},{"dx":0,"dy":0},{"dx":0,"dy":0},{"dx":0,"dy":0},{"dx":0,"dy":0},{"dx":0,"dy":0},{"dx":0,"dy":0},{"dx":0,"dy":0},{"dx":0,"dy":0},{"dx":0,"dy":0},{"dx":0,"dy":0},{"dx":0,"dy":0},{"dx":0,"dy":0},{"dx":0,"dy":0},{"dx":0,"dy":0},{"dx":0,"dy":0},{"dx":0,"dy":0},{"dx":0,"dy":0},{"dx":0,"dy":-7},{"dx":3,"dy":-13},{"dx":1,"dy":-5},{"dx":0,"dy":-5},{"dx":-1,"dy":-6},{"dx":-3,"dy":-7},{"dx":-3,"dy":-6},{"dx":-8,"dy":-10},{"dx":-5,"dy":-4},{"dx":-3,"dy":-4},{"dx":-4,"dy":-4},{"dx":-5,"dy":-2},{"dx":-5,"dy":-3},{"dx":-10,"dy":-3},{"dx":-1,"dy":0},{"dx":-5,"dy":-1},{"dx":-6,"dy":0},{"dx":-5,"dy":1},{"dx":-4,"dy":3},{"dx":-4,"dy":2},{"dx":-4,"dy":3},{"dx":-4,"dy":3},{"dx":-4,"dy":5},{"dx":-3,"dy":3},{"dx":-1,"dy":1},{"dx":-3,"dy":4},{"dx":-3,"dy":5},{"dx":-2,"dy":5},{"dx":-1,"dy":1},{"dx":-1,"dy":1},{"dx":0,"dy":2},{"dx":0,"dy":1},{"dx":-1,"dy":1},{"dx":0,"dy":2},{"dx":1,"dy":6},{"dx":0,"dy":1},{"dx":2,"dy":4},{"dx":3,"dy":6},{"dx":1,"dy":5},{"dx":1,"dy":6},{"dx":1,"dy":6},{"dx":1,"dy":5},{"dx":1,"dy":5},{"dx":0,"dy":7},{"dx":0,"dy":6},{"dx":0,"dy":4},{"dx":-2,"dy":6},{"dx":-1,"dy":6},{"dx":-1,"dy":4},{"dx":-4,"dy":8},{"dx":-2,"dy":5},{"dx":-3,"dy":4},{"dx":-2,"dy":5},{"dx":-3,"dy":4},{"dx":-3,"dy":5},{"dx":-6,"dy":8},{"dx":-4,"dy":5},{"dx":-4,"dy":4},{"dx":-4,"dy":4},{"dx":-4,"dy":3},{"dx":-4,"dy":3},{"dx":-8,"dy":4},{"dx":-5,"dy":2},{"dx":-4,"dy":0},{"dx":-5,"dy":1},{"dx":-1,"dy":0},{"dx":-4,"dy":0},{"dx":-4,"dy":-3},{"dx":-4,"dy":-2},{"dx":0,"dy":-1},{"dx":-3,"dy":-5},{"dx":-2,"dy":-6},{"dx":-1,"dy":-7},{"dx":0,"dy":-15},{"dx":1,"dy":-6},{"dx":1,"dy":-8},{"dx":1,"dy":-8},{"dx":1,"dy":-8},{"dx":0,"dy":-8},{"dx":0,"dy":-11},{"dx":0,"dy":-5},{"dx":0,"dy":-5},{"dx":0,"dy":-6},{"dx":0,"dy":-5},{"dx":0,"dy":-6},{"dx":2,"dy":-10},{"dx":1,"dy":-6},{"dx":1,"dy":-4},{"dx":0,"dy":-6},{"dx":0,"dy":-6},{"dx":0,"dy":-5},{"dx":0,"dy":-6},{"dx":-2,"dy":-5},{"dx":-1,"dy":-5},{"dx":-3,"dy":-7},{"dx":-1,"dy":-5},{"dx":-3,"dy":-4}],"trial_type":"plugin-moving-dots-2","trial_index":16,"plugin_version":"0.0.1","time_elapsed":92503},{"task":"fixation","rt":4097,"stimulus":"<div style=\"font-size:60px;\">+</div>","response":" ","trial_type":"html-keyboard-response","trial_index":17,"plugin_version":"2.1.0","time_elapsed":96602},{"task":"movingdots","control_change":0,"mouse_data":[{"dx":0,"dy":0},{"dx":0,"dy":0},{"dx":0,"dy":0},{"dx":0,"dy":0},{"dx":0,"dy":0},{"dx":0,"dy":0},{"dx":0,"dy":0},{"dx":0,"dy":0},{"dx":0,"dy":0},{"dx":0,"dy":0},{"dx":0,"dy":0},{"dx":0,"dy":0},{"dx":0,"dy":0},{"dx":0,"dy":0},{"dx":0,"dy":0},{"dx":0,"dy":0},{"dx":0,"dy":0},{"dx":0,"dy":0},{"dx":0,"dy":0},{"dx":0,"dy":0},{"dx":0,"dy":0},{"dx":0,"dy":0},{"dx":0,"dy":0},{"dx":0,"dy":0},{"dx":0,"dy":0},{"dx":0,"dy":0},{"dx":0,"dy":0},{"dx":0,"dy":0},{"dx":0,"dy":0},{"dx":0,"dy":0},{"dx":4,"dy":0},{"dx":4,"dy":0},{"dx":6,"dy":0},{"dx":4,"dy":0},{"dx":5,"dy":0},{"dx":8,"dy":0},{"dx":1,"dy":0},{"dx":4,"dy":-1},{"dx":1,"dy":0},{"dx":0,"dy":0},{"dx":1,"dy":-1},{"dx":4,"dy":-2},{"dx":4,"dy":-2},{"dx":0,"dy":0},{"dx":0,"dy":0},{"dx":0,"dy":0},{"dx":0,"dy":0},{"dx":0,"dy":0},{"dx":0,"dy":0},{"dx":0,"dy":0},{"dx":0,"dy":0},{"dx":0,"dy":0},{"dx":0,"dy":0},{"dx":0,"dy":0},{"dx":0,"dy":0},{"dx":0,"dy":0},{"dx":0,"dy":0},{"dx":0,"dy":0},{"dx":0,"dy":0},{"dx":0,"dy":0},{"dx":0,"dy":0},{"dx":0,"dy":0},{"dx":0,"dy":0},{"dx":0,"dy":0},{"dx":0,"dy":0},{"dx":0,"dy":0},{"dx":0,"dy":0},{"dx":0,"dy":0},{"dx":0,"dy":0},{"dx":0,"dy":0},{"dx":0,"dy":0},{"dx":0,"dy":0},{"dx":0,"dy":0},{"dx":0,"dy":0},{"dx":0,"dy":0},{"dx":0,"dy":0},{"dx":0,"dy":0},{"dx":0,"dy":0},{"dx":0,"dy":0},{"dx":0,"dy":0},{"dx":0,"dy":0},{"dx":0,"dy":0},{"dx":0,"dy":0},{"dx":0,"dy":0},{"dx":0,"dy":0},{"dx":0,"dy":0},{"dx":6,"dy":-4},{"dx":1,"dy":0},{"dx":1,"dy":-1},{"dx":1,"dy":-1},{"dx":0,"dy":0},{"dx":0,"dy":0},{"dx":11,"dy":-9},{"dx":3,"dy":-2},{"dx":1,"dy":0},{"dx":0,"dy":-1},{"dx":0,"dy":0},{"dx":0,"dy":0},{"dx":0,"dy":0},{"dx":0,"dy":0},{"dx":0,"dy":0},{"dx":0,"dy":0},{"dx":0,"dy":0},{"dx":0,"dy":0},{"dx":0,"dy":0},{"dx":0,"dy":0},{"dx":0,"dy":0},{"dx":0,"dy":0},{"dx":0,"dy":0},{"dx":0,"dy":0},{"dx":0,"dy":0},{"dx":0,"dy":0},{"dx":0,"dy":0},{"dx":0,"dy":0},{"dx":0,"dy":0},{"dx":0,"dy":0},{"dx":0,"dy":0},{"dx":0,"dy":0},{"dx":0,"dy":0},{"dx":0,"dy":0},{"dx":0,"dy":0},{"dx":0,"dy":0},{"dx":0,"dy":0},{"dx":0,"dy":0},{"dx":0,"dy":0},{"dx":0,"dy":0},{"dx":0,"dy":0},{"dx":0,"dy":0},{"dx":0,"dy":0},{"dx":0,"dy":0},{"dx":0,"dy":0},{"dx":0,"dy":0},{"dx":0,"dy":0},{"dx":0,"dy":0},{"dx":0,"dy":0},{"dx":0,"dy":0},{"dx":0,"dy":0},{"dx":0,"dy":0},{"dx":0,"dy":0},{"dx":0,"dy":0},{"dx":0,"dy":0},{"dx":0,"dy":0},{"dx":0,"dy":0},{"dx":0,"dy":0},{"dx":0,"dy":0},{"dx":0,"dy":0},{"dx":0,"dy":0},{"dx":0,"dy":0},{"dx":0,"dy":0},{"dx":0,"dy":0},{"dx":0,"dy":0},{"dx":0,"dy":0},{"dx":0,"dy":0},{"dx":0,"dy":0},{"dx":0,"dy":0},{"dx":0,"dy":0},{"dx":7,"dy":-2},{"dx":0,"dy":0},{"dx":4,"dy":-2},{"dx":5,"dy":-1},{"dx":5,"dy":-1},{"dx":5,"dy":-2},{"dx":6,"dy":-1},{"dx":4,"dy":-1},{"dx":5,"dy":-1},{"dx":8,"dy":-3},{"dx":5,"dy":-2},{"dx":5,"dy":-1},{"dx":6,"dy":-3},{"dx":5,"dy":-1},{"dx":6,"dy":-2},{"dx":5,"dy":-1},{"dx":1,"dy":-1},{"dx":5,"dy":0},{"dx":4,"dy":-2},{"dx":6,"dy":-1},{"dx":5,"dy":-2},{"dx":5,"dy":-1},{"dx":5,"dy":-2},{"dx":1,"dy":0},{"dx":4,"dy":-2},{"dx":4,"dy":-2},{"dx":4,"dy":-1},{"dx":1,"dy":-1},{"dx":2,"dy":-1},{"dx":1,"dy":0},{"dx":0,"dy":0},{"dx":1,"dy":0},{"dx":0,"dy":0},{"dx":0,"dy":0},{"dx":0,"dy":0},{"dx":0,"dy":0},{"dx":0,"dy":0},{"dx":0,"dy":0},{"dx":0,"dy":0},{"dx":0,"dy":0},{"dx":0,"dy":0},{"dx":0,"dy":0},{"dx":0,"dy":0},{"dx":0,"dy":0},{"dx":0,"dy":0},{"dx":0,"dy":0},{"dx":0,"dy":0},{"dx":0,"dy":0},{"dx":0,"dy":0},{"dx":0,"dy":0},{"dx":0,"dy":0},{"dx":0,"dy":0},{"dx":0,"dy":0},{"dx":0,"dy":0},{"dx":3,"dy":-2},{"dx":4,"dy":-2},{"dx":6,"dy":-3},{"dx":5,"dy":-3},{"dx":5,"dy":-3},{"dx":4,"dy":-2},{"dx":6,"dy":-2},{"dx":4,"dy":-1},{"dx":4,"dy":-1},{"dx":4,"dy":-2},{"dx":9,"dy":-3},{"dx":5,"dy":-2},{"dx":5,"dy":-1},{"dx":4,"dy":-1},{"dx":4,"dy":-1},{"dx":8,"dy":-2},{"dx":5,"dy":-1},{"dx":0,"dy":0},{"dx":5,"dy":-1},{"dx":6,"dy":-1},{"dx":0,"dy":0},{"dx":1,"dy":-1},{"dx":2,"dy":0},{"dx":1,"dy":0},{"dx":0,"dy":0},{"dx":0,"dy":0},{"dx":0,"dy":0},{"dx":1,"dy":0},{"dx":4,"dy":-2},{"dx":1,"dy":0},{"dx":1,"dy":0},{"dx":5,"dy":-2},{"dx":5,"dy":-2},{"dx":4,"dy":-1},{"dx":11,"dy":-3},{"dx":5,"dy":-1},{"dx":6,"dy":-1},{"dx":8,"dy":-1},{"dx":5,"dy":-1},{"dx":5,"dy":-1},{"dx":10,"dy":-2},{"dx":8,"dy":-1},{"dx":5,"dy":-1},{"dx":4,"dy":0},{"dx":5,"dy":-1},{"dx":5,"dy":0},{"dx":9,"dy":0},{"dx":4,"dy":0},{"dx":6,"dy":0},{"dx":5,"dy":0},{"dx":6,"dy":1},{"dx":0,"dy":0},{"dx":11,"dy":5},{"dx":5,"dy":2},{"dx":4,"dy":2},{"dx":5,"dy":2},{"dx":5,"dy":3},{"dx":4,"dy":3},{"dx":7,"dy":7},{"dx":3,"dy":4},{"dx":3,"dy":5},{"dx":4,"dy":6},{"dx":3,"dy":5},{"dx":3,"dy":5},{"dx":3,"dy":10},{"dx":2,"dy":7},{"dx":1,"dy":6},{"dx":0,"dy":5},{"dx":0,"dy":7},{"dx":0,"dy":7},{"dx":-2,"dy":16},{"dx":-1,"dy":8},{"dx":-1,"dy":5},{"dx":-2,"dy":8},{"dx":-1,"dy":7},{"dx":-1,"dy":6},{"dx":-1,"dy":11},{"dx":-1,"dy":1},{"dx":-1,"dy":7},{"dx":-1,"dy":9},{"dx":-1,"dy":5},{"dx":-1,"dy":6},{"dx":-1,"dy":5},{"dx":-2,"dy":6},{"dx":-1,"dy":6},{"dx":-2,"dy":10},{"dx":-1,"dy":6},{"dx":-1,"dy":6},{"dx":0,"dy":6},{"dx":-1,"dy":5},{"dx":0,"dy":7},{"dx":-1,"dy":6},{"dx":0,"dy":0},{"dx":0,"dy":5},{"dx":0,"dy":6},{"dx":0,"dy":1},{"dx":0,"dy":1},{"dx":0,"dy":1},{"dx":0,"dy":1},{"dx":1,"dy":0},{"dx":0,"dy":0},{"dx":5,"dy":-1},{"dx":4,"dy":-4},{"dx":15,"dy":-15},{"dx":8,"dy":-10},{"dx":7,"dy":-10},{"dx":6,"dy":-10},{"dx":4,"dy":-7},{"dx":4,"dy":-8},{"dx":7,"dy":-15},{"dx":2,"dy":-7},{"dx":1,"dy":-5},{"dx":2,"dy":-5},{"dx":1,"dy":-5},{"dx":0,"dy":-6},{"dx":1,"dy":-5},{"dx":0,"dy":-12},{"dx":-1,"dy":-5},{"dx":0,"dy":-1},{"dx":-2,"dy":-11},{"dx":-1,"dy":-5},{"dx":-2,"dy":-7},{"dx":0,"dy":-4},{"dx":-1,"dy":-5},{"dx":-1,"dy":-7},{"dx":-1,"dy":-6},{"dx":0,"dy":-1},{"dx":0,"dy":-6},{"dx":-1,"dy":-6},{"dx":-1,"dy":-7},{"dx":0,"dy":-6},{"dx":0,"dy":-6},{"dx":0,"dy":-6},{"dx":0,"dy":-7},{"dx":0,"dy":-4},{"dx":1,"dy":-6},{"dx":2,"dy":-6},{"dx":4,"dy":-13},{"dx":2,"dy":-6},{"dx":4,"dy":-7},{"dx":3,"dy":-6},{"dx":6,"dy":-12},{"dx":3,"dy":-8},{"dx":3,"dy":-6},{"dx":2,"dy":-4},{"dx":4,"dy":-6},{"dx":3,"dy":-4},{"dx":5,"dy":-5},{"dx":3,"dy":-3},{"dx":10,"dy":-8},{"dx":9,"dy":-6},{"dx":9,"dy":-3},{"dx":8,"dy":-2},{"dx":5,"dy":-1},{"dx":4,"dy":0},{"dx":5,"dy":0},{"dx":4,"dy":3},{"dx":0,"dy":0},{"dx":4,"dy":4},{"dx":0,"dy":2},{"dx":1,"dy":5},{"dx":1,"dy":11},{"dx":-1,"dy":8},{"dx":-2,"dy":10},{"dx":-4,"dy":10},{"dx":-4,"dy":9},{"dx":-2,"dy":8},{"dx":-4,"dy":13},{"dx":-1,"dy":6},{"dx":-1,"dy":6},{"dx":-1,"dy":6},{"dx":-1,"dy":5},{"dx":-2,"dy":5},{"dx":0,"dy":10},{"dx":0,"dy":6},{"dx":-1,"dy":5},{"dx":-1,"dy":6},{"dx":-1,"dy":5},{"dx":-1,"dy":5},{"dx":-3,"dy":11},{"dx":-2,"dy":7},{"dx":-2,"dy":7},{"dx":-2,"dy":6},{"dx":-2,"dy":4},{"dx":-4,"dy":6},{"dx":-8,"dy":9},{"dx":-4,"dy":5},{"dx":-5,"dy":5},{"dx":-5,"dy":4},{"dx":-4,"dy":4},{"dx":-5,"dy":5},{"dx":-13,"dy":10},{"dx":-8,"dy":4},{"dx":-5,"dy":3},{"dx":-6,"dy":4},{"dx":-7,"dy":2},{"dx":-4,"dy":3},{"dx":-11,"dy":3},{"dx":-4,"dy":2},{"dx":-6,"dy":1},{"dx":-6,"dy":1},{"dx":-7,"dy":0},{"dx":-7,"dy":1},{"dx":-14,"dy":2},{"dx":-6,"dy":1},{"dx":-10,"dy":1},{"dx":-12,"dy":1},{"dx":-7,"dy":1},{"dx":-7,"dy":0},{"dx":-8,"dy":1},{"dx":-7,"dy":0},{"dx":-7,"dy":0},{"dx":-12,"dy":0},{"dx":-7,"dy":0},{"dx":-8,"dy":0},{"dx":-8,"dy":0},{"dx":-8,"dy":0},{"dx":-6,"dy":0},{"dx":-9,"dy":1},{"dx":-15,"dy":1},{"dx":-6,"dy":1},{"dx":-7,"dy":1},{"dx":-6,"dy":0},{"dx":-7,"dy":2},{"dx":-6,"dy":1},{"dx":-10,"dy":2},{"dx":-5,"dy":1},{"dx":-5,"dy":2},{"dx":-4,"dy":2},{"dx":-5,"dy":2},{"dx":-4,"dy":1},{"dx":-9,"dy":6},{"dx":-3,"dy":3},{"dx":-4,"dy":2},{"dx":-3,"dy":4},{"dx":-4,"dy":3},{"dx":-3,"dy":4},{"dx":-7,"dy":7},{"dx":-4,"dy":3},{"dx":-5,"dy":5},{"dx":-5,"dy":5},{"dx":-5,"dy":5},{"dx":-5,"dy":5}],"trial_type":"plugin-moving-dots-2","trial_index":18,"plugin_version":"0.0.1","time_elapsed":104120},{"task":"fixation","rt":2785,"stimulus":"<div style=\"font-size:60px;\">+</div>","response":" ","trial_type":"html-keyboard-response","trial_index":19,"plugin_version":"2.1.0","time_elapsed":106906},{"task":"movingdots","control_change":0,"mouse_data":[{"dx":0,"dy":0},{"dx":0,"dy":0},{"dx":0,"dy":0},{"dx":0,"dy":0},{"dx":0,"dy":0},{"dx":0,"dy":-1},{"dx":0,"dy":0},{"dx":0,"dy":0},{"dx":0,"dy":0},{"dx":0,"dy":0},{"dx":0,"dy":0},{"dx":0,"dy":0},{"dx":0,"dy":0},{"dx":0,"dy":0},{"dx":0,"dy":0},{"dx":0,"dy":0},{"dx":0,"dy":0},{"dx":0,"dy":0},{"dx":0,"dy":0},{"dx":0,"dy":0},{"dx":0,"dy":0},{"dx":0,"dy":0},{"dx":0,"dy":0},{"dx":0,"dy":0},{"dx":0,"dy":0},{"dx":0,"dy":0},{"dx":0,"dy":0},{"dx":0,"dy":0},{"dx":-3,"dy":5},{"dx":-3,"dy":5},{"dx":-2,"dy":4},{"dx":-3,"dy":5},{"dx":-8,"dy":12},{"dx":-7,"dy":7},{"dx":-6,"dy":5},{"dx":-7,"dy":6},{"dx":-5,"dy":5},{"dx":-5,"dy":4},{"dx":-10,"dy":6},{"dx":-5,"dy":4},{"dx":-6,"dy":4},{"dx":-6,"dy":4},{"dx":-4,"dy":3},{"dx":-9,"dy":5},{"dx":-4,"dy":2},{"dx":-5,"dy":3},{"dx":-3,"dy":2},{"dx":-5,"dy":2},{"dx":-3,"dy":2},{"dx":-4,"dy":3},{"dx":-5,"dy":3},{"dx":-3,"dy":4},{"dx":-3,"dy":4},{"dx":-3,"dy":4},{"dx":-3,"dy":4},{"dx":-5,"dy":5},{"dx":-2,"dy":4},{"dx":-2,"dy":5},{"dx":-2,"dy":4},{"dx":-3,"dy":5},{"dx":-2,"dy":5},{"dx":-2,"dy":6},{"dx":-2,"dy":5},{"dx":0,"dy":0},{"dx":-3,"dy":5},{"dx":-2,"dy":5},{"dx":-3,"dy":4},{"dx":0,"dy":0},{"dx":-2,"dy":4},{"dx":-4,"dy":5},{"dx":-1,"dy":0},{"dx":-3,"dy":3},{"dx":-3,"dy":4},{"dx":-3,"dy":3},{"dx":-8,"dy":7},{"dx":-3,"dy":4},{"dx":-5,"dy":5},{"dx":-4,"dy":3},{"dx":-4,"dy":4},{"dx":-4,"dy":3},{"dx":-7,"dy":6},{"dx":-4,"dy":3},{"dx":-3,"dy":3},{"dx":-4,"dy":4},{"dx":-4,"dy":3},{"dx":-4,"dy":3},{"dx":-4,"dy":4},{"dx":-1,"dy":0},{"dx":-3,"dy":3},{"dx":-1,"dy":1},{"dx":-4,"dy":3},{"dx":0,"dy":0},{"dx":-1,"dy":0},{"dx":0,"dy":0},{"dx":0,"dy":0},{"dx":0,"dy":1},{"dx":0,"dy":0},{"dx":0,"dy":0},{"dx":0,"dy":0},{"dx":0,"dy":0},{"dx":-1,"dy":0},{"dx":-1,"dy":-1},{"dx":-1,"dy":-1},{"dx":0,"dy":-1},{"dx":-2,"dy":-5},{"dx":-2,"dy":-6},{"dx":0,"dy":-1},{"dx":-2,"dy":-12},{"dx":-1,"dy":-5},{"dx":0,"dy":-1},{"dx":-1,"dy":-12},{"dx":0,"dy":-5},{"dx":0,"dy":-7},{"dx":0,"dy":-7},{"dx":0,"dy":-6},{"dx":1,"dy":-5},{"dx":1,"dy":-10},{"dx":0,"dy":-6},{"dx":0,"dy":-7},{"dx":0,"dy":-5},{"dx":0,"dy":-5},{"dx":1,"dy":-6},{"dx":0,"dy":-7},{"dx":0,"dy":-5},{"dx":0,"dy":-6},{"dx":0,"dy":-7},{"dx":0,"dy":-5},{"dx":0,"dy":-4},{"dx":-1,"dy":-7},{"dx":-1,"dy":-6},{"dx":0,"dy":-1},{"dx":-3,"dy":-11},{"dx":-1,"dy":-1},{"dx":-1,"dy":-7},{"dx":-1,"dy":-7},{"dx":-1,"dy":-4},{"dx":0,"dy":0},{"dx":-2,"dy":-2},{"dx":0,"dy":-1},{"dx":-1,"dy":-1},{"dx":0,"dy":0},{"dx":0,"dy":0},{"dx":0,"dy":0},{"dx":0,"dy":0},{"dx":0,"dy":0},{"dx":0,"dy":0},{"dx":-4,"dy":5},{"dx":-1,"dy":4},{"dx":-2,"dy":5},{"dx":-5,"dy":13},{"dx":-4,"dy":7},{"dx":-3,"dy":10},{"dx":-3,"dy":10},{"dx":-4,"dy":10},{"dx":-3,"dy":8},{"dx":-8,"dy":19},{"dx":-3,"dy":10},{"dx":-4,"dy":8},{"dx":-3,"dy":8},{"dx":-2,"dy":6},{"dx":-4,"dy":7},{"dx":-5,"dy":15},{"dx":-4,"dy":6},{"dx":-2,"dy":5},{"dx":-2,"dy":5},{"dx":-2,"dy":4},{"dx":-3,"dy":4},{"dx":-1,"dy":1},{"dx":-1,"dy":1},{"dx":0,"dy":0},{"dx":0,"dy":1},{"dx":0,"dy":0},{"dx":0,"dy":0},{"dx":0,"dy":0},{"dx":0,"dy":0},{"dx":-1,"dy":0},{"dx":-1,"dy":-4},{"dx":0,"dy":-7},{"dx":0,"dy":-7},{"dx":0,"dy":-7},{"dx":1,"dy":-13},{"dx":0,"dy":-5},{"dx":0,"dy":-6},{"dx":0,"dy":-7},{"dx":0,"dy":-8},{"dx":0,"dy":-6},{"dx":-1,"dy":-5},{"dx":-2,"dy":-6},{"dx":-3,"dy":-5},{"dx":-4,"dy":-8},{"dx":-3,"dy":-6},{"dx":-3,"dy":-5},{"dx":-4,"dy":-5},{"dx":-3,"dy":-4},{"dx":-4,"dy":-4},{"dx":-5,"dy":-7},{"dx":0,"dy":-1},{"dx":-4,"dy":-4},{"dx":-4,"dy":-4},{"dx":-3,"dy":-4},{"dx":0,"dy":-1},{"dx":-1,"dy":0},{"dx":0,"dy":-1},{"dx":0,"dy":0},{"dx":0,"dy":0},{"dx":0,"dy":0},{"dx":0,"dy":0},{"dx":0,"dy":0},{"dx":0,"dy":0},{"dx":0,"dy":0},{"dx":0,"dy":0},{"dx":0,"dy":0},{"dx":0,"dy":0},{"dx":0,"dy":0},{"dx":0,"dy":0},{"dx":0,"dy":0},{"dx":0,"dy":0},{"dx":0,"dy":0},{"dx":0,"dy":0},{"dx":0,"dy":0},{"dx":0,"dy":0},{"dx":0,"dy":0},{"dx":0,"dy":0},{"dx":0,"dy":0},{"dx":0,"dy":0},{"dx":0,"dy":0},{"dx":0,"dy":0},{"dx":0,"dy":0},{"dx":-5,"dy":0},{"dx":-6,"dy":2},{"dx":-6,"dy":3},{"dx":-5,"dy":3},{"dx":-5,"dy":3},{"dx":-5,"dy":3},{"dx":-7,"dy":4},{"dx":-3,"dy":3},{"dx":-4,"dy":3},{"dx":-6,"dy":4},{"dx":-5,"dy":4},{"dx":-3,"dy":5},{"dx":-5,"dy":6},{"dx":-3,"dy":4},{"dx":-2,"dy":4},{"dx":-5,"dy":7},{"dx":-4,"dy":6},{"dx":-3,"dy":6},{"dx":-7,"dy":10},{"dx":-4,"dy":7},{"dx":-4,"dy":5},{"dx":-4,"dy":7},{"dx":-4,"dy":6},{"dx":-5,"dy":8},{"dx":-11,"dy":12},{"dx":-4,"dy":6},{"dx":-5,"dy":6},{"dx":-5,"dy":6},{"dx":-4,"dy":4},{"dx":-3,"dy":4},{"dx":-7,"dy":9},{"dx":-4,"dy":5},{"dx":-3,"dy":4},{"dx":-4,"dy":5},{"dx":-3,"dy":4},{"dx":-2,"dy":4},{"dx":-3,"dy":3},{"dx":-8,"dy":8},{"dx":-4,"dy":3},{"dx":-2,"dy":3},{"dx":-7,"dy":3},{"dx":-4,"dy":2},{"dx":-5,"dy":1},{"dx":-6,"dy":1},{"dx":-6,"dy":0},{"dx":-6,"dy":-2},{"dx":-7,"dy":-3},{"dx":-5,"dy":-2},{"dx":-4,"dy":-5},{"dx":-6,"dy":-5},{"dx":-4,"dy":-5},{"dx":-3,"dy":-6},{"dx":-5,"dy":-13},{"dx":-3,"dy":-10},{"dx":-3,"dy":-8},{"dx":-3,"dy":-13},{"dx":-1,"dy":-7},{"dx":-2,"dy":-9},{"dx":-2,"dy":-8},{"dx":-2,"dy":-6},{"dx":-2,"dy":-5},{"dx":-2,"dy":-5},{"dx":0,"dy":-1},{"dx":-1,"dy":-1},{"dx":-1,"dy":-2},{"dx":0,"dy":-1},{"dx":0,"dy":0},{"dx":0,"dy":-1},{"dx":0,"dy":0},{"dx":0,"dy":-1},{"dx":9,"dy":-4},{"dx":4,"dy":-1},{"dx":5,"dy":-2},{"dx":6,"dy":-1},{"dx":5,"dy":-1},{"dx":3,"dy":0},{"dx":10,"dy":0},{"dx":6,"dy":0},{"dx":4,"dy":0},{"dx":5,"dy":1},{"dx":4,"dy":1},{"dx":5,"dy":1},{"dx":8,"dy":2},{"dx":4,"dy":1},{"dx":5,"dy":2},{"dx":5,"dy":2},{"dx":1,"dy":0},{"dx":4,"dy":2},{"dx":5,"dy":3},{"dx":6,"dy":2},{"dx":1,"dy":1},{"dx":9,"dy":2},{"dx":5,"dy":2},{"dx":5,"dy":2},{"dx":4,"dy":2},{"dx":5,"dy":3},{"dx":4,"dy":2},{"dx":5,"dy":2},{"dx":4,"dy":2},{"dx":5,"dy":2},{"dx":7,"dy":4},{"dx":4,"dy":2},{"dx":4,"dy":1},{"dx":4,"dy":3},{"dx":5,"dy":2},{"dx":5,"dy":2},{"dx":8,"dy":4},{"dx":1,"dy":1},{"dx":4,"dy":4},{"dx":8,"dy":5},{"dx":4,"dy":2},{"dx":4,"dy":3},{"dx":5,"dy":2},{"dx":5,"dy":2},{"dx":5,"dy":3},{"dx":9,"dy":5},{"dx":5,"dy":2},{"dx":6,"dy":2},{"dx":5,"dy":2},{"dx":5,"dy":3},{"dx":6,"dy":2},{"dx":8,"dy":4},{"dx":5,"dy":2},{"dx":4,"dy":2},{"dx":5,"dy":2},{"dx":5,"dy":1},{"dx":2,"dy":1},{"dx":9,"dy":1},{"dx":5,"dy":1},{"dx":5,"dy":2},{"dx":4,"dy":1},{"dx":5,"dy":0},{"dx":5,"dy":1},{"dx":9,"dy":1},{"dx":5,"dy":0},{"dx":4,"dy":0},{"dx":6,"dy":0},{"dx":5,"dy":0},{"dx":6,"dy":0},{"dx":10,"dy":-1},{"dx":5,"dy":0},{"dx":6,"dy":-1},{"dx":6,"dy":-1},{"dx":7,"dy":0},{"dx":5,"dy":-1},{"dx":11,"dy":0},{"dx":4,"dy":-1},{"dx":7,"dy":0},{"dx":9,"dy":-1},{"dx":7,"dy":-1},{"dx":5,"dy":-1},{"dx":11,"dy":-2},{"dx":9,"dy":0},{"dx":9,"dy":-2},{"dx":7,"dy":-1},{"dx":6,"dy":-1},{"dx":6,"dy":-1},{"dx":15,"dy":-1},{"dx":8,"dy":-1},{"dx":6,"dy":-2},{"dx":6,"dy":-1},{"dx":8,"dy":-1},{"dx":8,"dy":-1},{"dx":13,"dy":-3},{"dx":8,"dy":-2},{"dx":4,"dy":-1},{"dx":15,"dy":-3},{"dx":6,"dy":-2},{"dx":5,"dy":-2},{"dx":4,"dy":-2},{"dx":1,"dy":-1},{"dx":1,"dy":-1},{"dx":1,"dy":0},{"dx":1,"dy":0},{"dx":0,"dy":-1},{"dx":1,"dy":-1},{"dx":1,"dy":-6},{"dx":0,"dy":0},{"dx":0,"dy":-6},{"dx":0,"dy":-6},{"dx":-2,"dy":-5},{"dx":-2,"dy":-6},{"dx":-2,"dy":-7},{"dx":0,"dy":-1},{"dx":-3,"dy":-5},{"dx":-3,"dy":-5},{"dx":-4,"dy":-4},{"dx":-4,"dy":-3},{"dx":0,"dy":-1},{"dx":-4,"dy":-3},{"dx":-4,"dy":-4},{"dx":-4,"dy":-4},{"dx":-5,"dy":-4},{"dx":-3,"dy":-2},{"dx":-7,"dy":-4},{"dx":-4,"dy":-2},{"dx":-1,"dy":0},{"dx":-5,"dy":-3},{"dx":-5,"dy":-3},{"dx":-7,"dy":-2},{"dx":-6,"dy":-1},{"dx":-5,"dy":-1},{"dx":-5,"dy":-1},{"dx":-9,"dy":-1},{"dx":-5,"dy":-1},{"dx":-4,"dy":-1},{"dx":-5,"dy":-1},{"dx":-6,"dy":0},{"dx":-5,"dy":0},{"dx":-9,"dy":0},{"dx":-5,"dy":-1},{"dx":-4,"dy":0},{"dx":-6,"dy":-1},{"dx":0,"dy":0},{"dx":-5,"dy":-1},{"dx":-5,"dy":0},{"dx":-5,"dy":-1},{"dx":0,"dy":0},{"dx":-4,"dy":0},{"dx":-2,"dy":-1},{"dx":-4,"dy":0},{"dx":-2,"dy":-1},{"dx":-5,"dy":-1},{"dx":-5,"dy":0},{"dx":-4,"dy":0}],"trial_type":"plugin-moving-dots-2","trial_index":20,"plugin_version":"0.0.1","time_elapsed":114420},{"task":"fixation","rt":3604,"stimulus":"<div style=\"font-size:60px;\">+</div>","response":" ","trial_type":"html-keyboard-response","trial_index":21,"plugin_version":"2.1.0","time_elapsed":118026},{"task":"movingdots","control_change":0,"mouse_data":[{"dx":0,"dy":0},{"dx":0,"dy":0},{"dx":0,"dy":0},{"dx":0,"dy":0},{"dx":0,"dy":0},{"dx":0,"dy":0},{"dx":0,"dy":0},{"dx":0,"dy":0},{"dx":0,"dy":0},{"dx":0,"dy":0},{"dx":0,"dy":0},{"dx":0,"dy":0},{"dx":0,"dy":0},{"dx":0,"dy":0},{"dx":0,"dy":0},{"dx":0,"dy":0},{"dx":0,"dy":0},{"dx":0,"dy":0},{"dx":0,"dy":0},{"dx":0,"dy":0},{"dx":0,"dy":0},{"dx":0,"dy":0},{"dx":0,"dy":0},{"dx":0,"dy":0},{"dx":0,"dy":0},{"dx":0,"dy":0},{"dx":0,"dy":0},{"dx":0,"dy":0},{"dx":0,"dy":-6},{"dx":3,"dy":-8},{"dx":3,"dy":-8},{"dx":1,"dy":-8},{"dx":0,"dy":-4},{"dx":1,"dy":-7},{"dx":1,"dy":-5},{"dx":0,"dy":0},{"dx":0,"dy":-6},{"dx":0,"dy":-5},{"dx":0,"dy":-6},{"dx":0,"dy":-5},{"dx":-1,"dy":-7},{"dx":0,"dy":-1},{"dx":-1,"dy":-5},{"dx":-1,"dy":-5},{"dx":-1,"dy":-5},{"dx":-2,"dy":-6},{"dx":-1,"dy":0},{"dx":-1,"dy":-6},{"dx":-1,"dy":-7},{"dx":-1,"dy":-4},{"dx":-1,"dy":-7},{"dx":0,"dy":-1},{"dx":-1,"dy":-5},{"dx":-1,"dy":-1},{"dx":-1,"dy":-2},{"dx":-1,"dy":-4},{"dx":0,"dy":-1},{"dx":-1,"dy":-2},{"dx":0,"dy":-1},{"dx":-1,"dy":-2},{"dx":-1,"dy":-2},{"dx":-2,"dy":-4},{"dx":0,"dy":-2},{"dx":-3,"dy":-4},{"dx":0,"dy":-1},{"dx":-1,"dy":-1},{"dx":-2,"dy":-6},{"dx":-3,"dy":-4},{"dx":-1,"dy":-1},{"dx":-2,"dy":-4},{"dx":-1,"dy":-1},{"dx":-3,"dy":-6},{"dx":-2,"dy":-3},{"dx":-1,"dy":-1},{"dx":-3,"dy":-5},{"dx":-2,"dy":-4},{"dx":0,"dy":0},{"dx":-4,"dy":-5},{"dx":-7,"dy":-8},{"dx":0,"dy":0},{"dx":-4,"dy":-2},{"dx":-4,"dy":-3},{"dx":-6,"dy":-3},{"dx":-4,"dy":-2},{"dx":-6,"dy":-1},{"dx":-4,"dy":0},{"dx":-5,"dy":0},{"dx":-10,"dy":0},{"dx":-4,"dy":0},{"dx":-6,"dy":1},{"dx":-4,"dy":2},{"dx":-5,"dy":2},{"dx":-1,"dy":0},{"dx":-5,"dy":2},{"dx":-1,"dy":1},{"dx":-3,"dy":3},{"dx":-1,"dy":1},{"dx":-3,"dy":4},{"dx":0,"dy":1},{"dx":-3,"dy":4},{"dx":0,"dy":1},{"dx":-3,"dy":4},{"dx":-3,"dy":6},{"dx":0,"dy":1},{"dx":-2,"dy":5},{"dx":-5,"dy":8},{"dx":-2,"dy":6},{"dx":-1,"dy":4},{"dx":-3,"dy":7},{"dx":0,"dy":1},{"dx":-3,"dy":7},{"dx":-2,"dy":5},{"dx":-2,"dy":6},{"dx":-2,"dy":6},{"dx":-2,"dy":6},{"dx":-2,"dy":6},{"dx":-1,"dy":5},{"dx":-3,"dy":10},{"dx":-1,"dy":5},{"dx":-2,"dy":4},{"dx":-2,"dy":7},{"dx":-2,"dy":6},{"dx":-2,"dy":6},{"dx":-4,"dy":11},{"dx":-2,"dy":4},{"dx":-3,"dy":5},{"dx":-1,"dy":5},{"dx":-3,"dy":4},{"dx":-2,"dy":5},{"dx":-3,"dy":8},{"dx":-2,"dy":5},{"dx":-2,"dy":5},{"dx":-2,"dy":4},{"dx":-3,"dy":5},{"dx":-2,"dy":4},{"dx":-3,"dy":3},{"dx":-3,"dy":5},{"dx":-4,"dy":4},{"dx":-1,"dy":0},{"dx":0,"dy":1},{"dx":-2,"dy":0},{"dx":-4,"dy":1},{"dx":-1,"dy":0},{"dx":-5,"dy":-2},{"dx":-4,"dy":-5},{"dx":-2,"dy":-5},{"dx":-3,"dy":-3},{"dx":-4,"dy":-6},{"dx":-2,"dy":-4},{"dx":-3,"dy":-6},{"dx":-4,"dy":-10},{"dx":-4,"dy":-5},{"dx":-3,"dy":-6},{"dx":-4,"dy":-5},{"dx":-2,"dy":-4},{"dx":-3,"dy":-4},{"dx":-3,"dy":-9},{"dx":-1,"dy":-5},{"dx":-1,"dy":-6},{"dx":-1,"dy":-7},{"dx":0,"dy":-1},{"dx":-1,"dy":-5},{"dx":-3,"dy":-6},{"dx":-1,"dy":-6},{"dx":0,"dy":0},{"dx":-2,"dy":-7},{"dx":-1,"dy":-5},{"dx":-1,"dy":-6},{"dx":-2,"dy":-5},{"dx":-3,"dy":-5},{"dx":0,"dy":0},{"dx":-3,"dy":-3},{"dx":-2,"dy":-1},{"dx":-3,"dy":-4},{"dx":-1,"dy":-1},{"dx":-3,"dy":-3},{"dx":-1,"dy":-1},{"dx":-1,"dy":-2},{"dx":-1,"dy":-1},{"dx":-3,"dy":-4},{"dx":-1,"dy":0},{"dx":-4,"dy":-3},{"dx":-1,"dy":-1},{"dx":-5,"dy":-2},{"dx":-5,"dy":-2},{"dx":-5,"dy":-1},{"dx":-4,"dy":-1},{"dx":-11,"dy":0},{"dx":-7,"dy":1},{"dx":-7,"dy":2},{"dx":-9,"dy":3},{"dx":-7,"dy":2},{"dx":-7,"dy":2},{"dx":-9,"dy":5},{"dx":-1,"dy":1},{"dx":-3,"dy":3},{"dx":-4,"dy":4},{"dx":-1,"dy":1},{"dx":-1,"dy":4},{"dx":-2,"dy":5},{"dx":0,"dy":1},{"dx":0,"dy":1},{"dx":-1,"dy":2},{"dx":0,"dy":1},{"dx":0,"dy":0},{"dx":0,"dy":1},{"dx":3,"dy":3},{"dx":4,"dy":2},{"dx":7,"dy":1},{"dx":12,"dy":2},{"dx":10,"dy":0},{"dx":23,"dy":-1},{"dx":13,"dy":-1},{"dx":14,"dy":-4},{"dx":22,"dy":-5},{"dx":13,"dy":-3},{"dx":14,"dy":-4},{"dx":21,"dy":-6},{"dx":10,"dy":-3},{"dx":10,"dy":-4},{"dx":16,"dy":-7},{"dx":8,"dy":-4},{"dx":8,"dy":-5},{"dx":8,"dy":-5},{"dx":5,"dy":-3},{"dx":4,"dy":-4},{"dx":7,"dy":-4},{"dx":3,"dy":-3},{"dx":5,"dy":-4},{"dx":7,"dy":-5},{"dx":6,"dy":-4},{"dx":5,"dy":-3},{"dx":10,"dy":-9},{"dx":5,"dy":-4},{"dx":4,"dy":-4},{"dx":4,"dy":-3},{"dx":3,"dy":-3},{"dx":4,"dy":-3},{"dx":9,"dy":-6},{"dx":6,"dy":-3},{"dx":8,"dy":-5},{"dx":5,"dy":-4},{"dx":5,"dy":-3},{"dx":5,"dy":-4},{"dx":15,"dy":-7},{"dx":7,"dy":-3},{"dx":7,"dy":-3},{"dx":6,"dy":-2},{"dx":7,"dy":-2},{"dx":8,"dy":-1},{"dx":13,"dy":-3},{"dx":6,"dy":-1},{"dx":5,"dy":0},{"dx":7,"dy":-1},{"dx":7,"dy":0},{"dx":5,"dy":0},{"dx":13,"dy":0},{"dx":6,"dy":0},{"dx":7,"dy":0},{"dx":6,"dy":1},{"dx":5,"dy":1},{"dx":4,"dy":1},{"dx":11,"dy":2},{"dx":6,"dy":2},{"dx":6,"dy":3},{"dx":5,"dy":2},{"dx":5,"dy":3},{"dx":3,"dy":3},{"dx":6,"dy":8},{"dx":3,"dy":3},{"dx":4,"dy":6},{"dx":3,"dy":5},{"dx":3,"dy":5},{"dx":2,"dy":7},{"dx":5,"dy":13},{"dx":3,"dy":9},{"dx":3,"dy":6},{"dx":2,"dy":7},{"dx":3,"dy":6},{"dx":4,"dy":8},{"dx":8,"dy":14},{"dx":4,"dy":5},{"dx":5,"dy":8},{"dx":4,"dy":6},{"dx":7,"dy":9},{"dx":7,"dy":11},{"dx":9,"dy":9},{"dx":7,"dy":8},{"dx":7,"dy":6},{"dx":11,"dy":12},{"dx":6,"dy":6},{"dx":5,"dy":4},{"dx":12,"dy":10},{"dx":7,"dy":6},{"dx":6,"dy":4},{"dx":7,"dy":5},{"dx":7,"dy":4},{"dx":8,"dy":4},{"dx":7,"dy":5},{"dx":11,"dy":6},{"dx":7,"dy":3},{"dx":8,"dy":2},{"dx":9,"dy":2},{"dx":8,"dy":1},{"dx":11,"dy":1},{"dx":7,"dy":0},{"dx":8,"dy":1},{"dx":8,"dy":0},{"dx":7,"dy":0},{"dx":11,"dy":-1},{"dx":11,"dy":-2},{"dx":12,"dy":-3},{"dx":7,"dy":-2},{"dx":7,"dy":-3},{"dx":12,"dy":-3},{"dx":5,"dy":-2},{"dx":6,"dy":-4},{"dx":9,"dy":-5},{"dx":4,"dy":-2},{"dx":5,"dy":-3},{"dx":4,"dy":-4},{"dx":6,"dy":-4},{"dx":3,"dy":-3},{"dx":6,"dy":-6},{"dx":4,"dy":-5},{"dx":3,"dy":-4},{"dx":3,"dy":-4},{"dx":3,"dy":-4},{"dx":0,"dy":-1},{"dx":3,"dy":-5},{"dx":1,"dy":-6},{"dx":0,"dy":0},{"dx":1,"dy":-6},{"dx":1,"dy":-6},{"dx":0,"dy":-5},{"dx":2,"dy":-10},{"dx":0,"dy":-1},{"dx":0,"dy":-5},{"dx":1,"dy":-6},{"dx":0,"dy":-1},{"dx":0,"dy":-1},{"dx":0,"dy":-6},{"dx":0,"dy":-2},{"dx":-1,"dy":-6},{"dx":0,"dy":-1},{"dx":-2,"dy":-4},{"dx":0,"dy":-2},{"dx":-2,"dy":-5},{"dx":-3,"dy":-5},{"dx":0,"dy":0},{"dx":-4,"dy":-5},{"dx":0,"dy":-1},{"dx":-3,"dy":-4},{"dx":-1,"dy":-1},{"dx":-4,"dy":-4},{"dx":0,"dy":0},{"dx":-5,"dy":-4},{"dx":-5,"dy":-2},{"dx":-5,"dy":-2},{"dx":-7,"dy":-2},{"dx":-6,"dy":0},{"dx":-5,"dy":0},{"dx":-9,"dy":0},{"dx":-1,"dy":0},{"dx":-4,"dy":0},{"dx":-6,"dy":2},{"dx":0,"dy":0},{"dx":-1,"dy":1},{"dx":-1,"dy":2},{"dx":-1,"dy":0},{"dx":0,"dy":2},{"dx":0,"dy":2},{"dx":0,"dy":1},{"dx":1,"dy":4},{"dx":4,"dy":5},{"dx":0,"dy":0},{"dx":4,"dy":4},{"dx":5,"dy":4},{"dx":3,"dy":4},{"dx":3,"dy":4},{"dx":8,"dy":5},{"dx":1,"dy":1},{"dx":5,"dy":3},{"dx":9,"dy":5},{"dx":5,"dy":3},{"dx":4,"dy":2},{"dx":4,"dy":2},{"dx":3,"dy":3},{"dx":4,"dy":3},{"dx":3,"dy":4},{"dx":4,"dy":6},{"dx":3,"dy":5},{"dx":2,"dy":4},{"dx":3,"dy":5},{"dx":1,"dy":4},{"dx":2,"dy":9},{"dx":1,"dy":5},{"dx":1,"dy":5},{"dx":0,"dy":7},{"dx":0,"dy":6},{"dx":0,"dy":5},{"dx":0,"dy":11},{"dx":0,"dy":5},{"dx":-1,"dy":7},{"dx":0,"dy":6},{"dx":0,"dy":4},{"dx":-2,"dy":7},{"dx":0,"dy":10},{"dx":0,"dy":6},{"dx":-1,"dy":6},{"dx":-1,"dy":7},{"dx":-2,"dy":6},{"dx":-2,"dy":5},{"dx":-3,"dy":5},{"dx":-5,"dy":11},{"dx":-3,"dy":6},{"dx":-4,"dy":6},{"dx":-5,"dy":7},{"dx":-5,"dy":5},{"dx":-5,"dy":5},{"dx":-9,"dy":11},{"dx":-6,"dy":6},{"dx":-6,"dy":6},{"dx":-9,"dy":9},{"dx":-4,"dy":4},{"dx":-12,"dy":9},{"dx":-6,"dy":3},{"dx":-6,"dy":4},{"dx":-6,"dy":3},{"dx":-11,"dy":8},{"dx":-6,"dy":3},{"dx":-7,"dy":3},{"dx":-7,"dy":3},{"dx":-7,"dy":2},{"dx":-6,"dy":1},{"dx":-12,"dy":3},{"dx":-8,"dy":1},{"dx":-6,"dy":1},{"dx":-5,"dy":0},{"dx":-6,"dy":1},{"dx":-5,"dy":0},{"dx":-13,"dy":2},{"dx":-8,"dy":1},{"dx":-5,"dy":0},{"dx":-7,"dy":1},{"dx":-6,"dy":2},{"dx":-6,"dy":2},{"dx":-11,"dy":3},{"dx":-6,"dy":3},{"dx":-4,"dy":3},{"dx":-6,"dy":5},{"dx":-5,"dy":3},{"dx":-4,"dy":3}],"trial_type":"plugin-moving-dots-2","trial_index":22,"plugin_version":"0.0.1","time_elapsed":125536},{"task":"fixation","rt":2888,"stimulus":"<div style=\"font-size:60px;\">+</div>","response":" ","trial_type":"html-keyboard-response","trial_index":23,"plugin_version":"2.1.0","time_elapsed":128426},{"task":"movingdots","control_change":0,"mouse_data":[{"dx":0,"dy":0},{"dx":0,"dy":0},{"dx":0,"dy":0},{"dx":0,"dy":0},{"dx":0,"dy":0},{"dx":0,"dy":0},{"dx":0,"dy":0},{"dx":0,"dy":0},{"dx":0,"dy":0},{"dx":0,"dy":0},{"dx":0,"dy":0},{"dx":0,"dy":0},{"dx":0,"dy":0},{"dx":0,"dy":0},{"dx":0,"dy":0},{"dx":0,"dy":0},{"dx":0,"dy":0},{"dx":0,"dy":0},{"dx":0,"dy":0},{"dx":0,"dy":0},{"dx":0,"dy":0},{"dx":0,"dy":0},{"dx":0,"dy":0},{"dx":0,"dy":0},{"dx":0,"dy":0},{"dx":0,"dy":0},{"dx":0,"dy":0},{"dx":0,"dy":0},{"dx":0,"dy":0},{"dx":0,"dy":0},{"dx":0,"dy":0},{"dx":0,"dy":0},{"dx":0,"dy":0},{"dx":0,"dy":0},{"dx":3,"dy":-5},{"dx":4,"dy":-7},{"dx":2,"dy":-5},{"dx":5,"dy":-7},{"dx":2,"dy":-5},{"dx":3,"dy":-6},{"dx":2,"dy":-7},{"dx":3,"dy":-5},{"dx":4,"dy":-6},{"dx":4,"dy":-5},{"dx":6,"dy":-8},{"dx":3,"dy":-5},{"dx":3,"dy":-4},{"dx":3,"dy":-4},{"dx":3,"dy":-4},{"dx":4,"dy":-5},{"dx":11,"dy":-9},{"dx":3,"dy":-3},{"dx":5,"dy":-5},{"dx":1,"dy":0},{"dx":4,"dy":-3},{"dx":5,"dy":-3},{"dx":9,"dy":-4},{"dx":7,"dy":-3},{"dx":5,"dy":-2},{"dx":7,"dy":-2},{"dx":5,"dy":-2},{"dx":5,"dy":-1},{"dx":12,"dy":0},{"dx":5,"dy":0},{"dx":4,"dy":0},{"dx":1,"dy":0},{"dx":4,"dy":2},{"dx":0,"dy":1},{"dx":2,"dy":1},{"dx":1,"dy":1},{"dx":0,"dy":1},{"dx":2,"dy":6},{"dx":0,"dy":0},{"dx":1,"dy":6},{"dx":0,"dy":7},{"dx":-1,"dy":6},{"dx":0,"dy":5},{"dx":-2,"dy":6},{"dx":-1,"dy":7},{"dx":-1,"dy":5},{"dx":-2,"dy":7},{"dx":-2,"dy":4},{"dx":-1,"dy":6},{"dx":-2,"dy":11},{"dx":0,"dy":5},{"dx":-2,"dy":6},{"dx":-1,"dy":5},{"dx":0,"dy":6},{"dx":0,"dy":6},{"dx":0,"dy":12},{"dx":0,"dy":5},{"dx":1,"dy":5},{"dx":2,"dy":5},{"dx":2,"dy":6},{"dx":1,"dy":6},{"dx":3,"dy":12},{"dx":1,"dy":6},{"dx":2,"dy":5},{"dx":2,"dy":5},{"dx":2,"dy":6},{"dx":2,"dy":6},{"dx":4,"dy":12},{"dx":3,"dy":5},{"dx":3,"dy":5},{"dx":4,"dy":4},{"dx":4,"dy":4},{"dx":3,"dy":4},{"dx":7,"dy":7},{"dx":4,"dy":4},{"dx":4,"dy":3},{"dx":6,"dy":4},{"dx":5,"dy":3},{"dx":7,"dy":3},{"dx":10,"dy":5},{"dx":5,"dy":1},{"dx":6,"dy":2},{"dx":6,"dy":2},{"dx":6,"dy":1},{"dx":6,"dy":1},{"dx":10,"dy":2},{"dx":4,"dy":0},{"dx":5,"dy":2},{"dx":5,"dy":0},{"dx":5,"dy":0},{"dx":4,"dy":0},{"dx":6,"dy":0},{"dx":4,"dy":0},{"dx":6,"dy":-1},{"dx":11,"dy":-3},{"dx":5,"dy":-1},{"dx":4,"dy":-1},{"dx":5,"dy":-3},{"dx":5,"dy":-2},{"dx":6,"dy":-3},{"dx":10,"dy":-7},{"dx":4,"dy":-4},{"dx":4,"dy":-4},{"dx":2,"dy":-4},{"dx":3,"dy":-4},{"dx":3,"dy":-5},{"dx":2,"dy":-6},{"dx":3,"dy":-9},{"dx":1,"dy":-5},{"dx":0,"dy":-7},{"dx":0,"dy":-6},{"dx":0,"dy":-1},{"dx":-1,"dy":-4},{"dx":-2,"dy":-5},{"dx":-3,"dy":-4},{"dx":-3,"dy":-5},{"dx":-4,"dy":-4},{"dx":-3,"dy":-4},{"dx":-5,"dy":-4},{"dx":-7,"dy":-7},{"dx":-5,"dy":-3},{"dx":-5,"dy":-2},{"dx":-8,"dy":-2},{"dx":-5,"dy":-1},{"dx":-6,"dy":-2},{"dx":-12,"dy":0},{"dx":-8,"dy":0},{"dx":-7,"dy":0},{"dx":-6,"dy":0},{"dx":-4,"dy":1},{"dx":-5,"dy":2},{"dx":-8,"dy":4},{"dx":-4,"dy":2},{"dx":-4,"dy":3},{"dx":-4,"dy":4},{"dx":-4,"dy":3},{"dx":-3,"dy":4},{"dx":-4,"dy":9},{"dx":-2,"dy":5},{"dx":-1,"dy":6},{"dx":-1,"dy":1},{"dx":0,"dy":5},{"dx":0,"dy":7},{"dx":0,"dy":1},{"dx":0,"dy":5},{"dx":0,"dy":7},{"dx":2,"dy":5},{"dx":2,"dy":5},{"dx":3,"dy":5},{"dx":5,"dy":11},{"dx":3,"dy":4},{"dx":4,"dy":4},{"dx":4,"dy":3},{"dx":4,"dy":4},{"dx":5,"dy":4},{"dx":11,"dy":6},{"dx":5,"dy":3},{"dx":5,"dy":2},{"dx":6,"dy":3},{"dx":5,"dy":3},{"dx":6,"dy":3},{"dx":11,"dy":5},{"dx":5,"dy":3},{"dx":6,"dy":3},{"dx":6,"dy":3},{"dx":6,"dy":4},{"dx":6,"dy":3},{"dx":9,"dy":5},{"dx":4,"dy":4},{"dx":4,"dy":3},{"dx":4,"dy":4},{"dx":5,"dy":4},{"dx":4,"dy":3},{"dx":5,"dy":8},{"dx":3,"dy":4},{"dx":2,"dy":4},{"dx":2,"dy":5},{"dx":1,"dy":5},{"dx":1,"dy":5},{"dx":2,"dy":7},{"dx":0,"dy":5},{"dx":0,"dy":7},{"dx":0,"dy":6},{"dx":0,"dy":5},{"dx":-2,"dy":7},{"dx":-2,"dy":8},{"dx":0,"dy":0},{"dx":-3,"dy":5},{"dx":-5,"dy":9},{"dx":-2,"dy":4},{"dx":-1,"dy":1},{"dx":-4,"dy":4},{"dx":-3,"dy":2},{"dx":-4,"dy":3},{"dx":-6,"dy":2},{"dx":0,"dy":0},{"dx":-4,"dy":1},{"dx":-5,"dy":1},{"dx":-6,"dy":0},{"dx":-4,"dy":0},{"dx":-6,"dy":0},{"dx":-5,"dy":0},{"dx":-6,"dy":0},{"dx":-11,"dy":-1},{"dx":-6,"dy":-1},{"dx":-7,"dy":-2},{"dx":-8,"dy":-2},{"dx":-7,"dy":-1},{"dx":-7,"dy":-2},{"dx":-10,"dy":-4},{"dx":-7,"dy":-4},{"dx":-7,"dy":-4},{"dx":-13,"dy":-7},{"dx":-8,"dy":-6},{"dx":-5,"dy":-3},{"dx":-14,"dy":-9},{"dx":-5,"dy":-4},{"dx":-5,"dy":-4},{"dx":-6,"dy":-5},{"dx":-4,"dy":-5},{"dx":-3,"dy":-5},{"dx":-4,"dy":-9},{"dx":-2,"dy":-5},{"dx":0,"dy":-1},{"dx":-2,"dy":-12},{"dx":0,"dy":-5},{"dx":0,"dy":-6},{"dx":0,"dy":-8},{"dx":1,"dy":-5},{"dx":2,"dy":-4},{"dx":2,"dy":-4},{"dx":2,"dy":-4},{"dx":3,"dy":-4},{"dx":6,"dy":-6},{"dx":3,"dy":-4},{"dx":1,"dy":-1},{"dx":7,"dy":-7},{"dx":4,"dy":-3},{"dx":4,"dy":-3},{"dx":5,"dy":-2},{"dx":4,"dy":-2},{"dx":4,"dy":-2},{"dx":5,"dy":-1},{"dx":5,"dy":-1},{"dx":5,"dy":-1},{"dx":9,"dy":-2},{"dx":5,"dy":0},{"dx":5,"dy":0},{"dx":6,"dy":0},{"dx":4,"dy":0},{"dx":4,"dy":0},{"dx":5,"dy":1},{"dx":5,"dy":1},{"dx":6,"dy":2},{"dx":1,"dy":1},{"dx":4,"dy":3},{"dx":5,"dy":2},{"dx":3,"dy":4},{"dx":4,"dy":6},{"dx":0,"dy":0},{"dx":3,"dy":5},{"dx":2,"dy":5},{"dx":2,"dy":4},{"dx":1,"dy":1},{"dx":2,"dy":5},{"dx":2,"dy":5},{"dx":2,"dy":5},{"dx":2,"dy":6},{"dx":1,"dy":1},{"dx":1,"dy":4},{"dx":2,"dy":5},{"dx":0,"dy":1},{"dx":2,"dy":4},{"dx":2,"dy":6},{"dx":3,"dy":5},{"dx":0,"dy":0},{"dx":2,"dy":5},{"dx":2,"dy":3},{"dx":3,"dy":4},{"dx":4,"dy":5},{"dx":1,"dy":0},{"dx":2,"dy":4},{"dx":4,"dy":3},{"dx":3,"dy":4},{"dx":5,"dy":2},{"dx":8,"dy":3},{"dx":5,"dy":1},{"dx":4,"dy":1},{"dx":5,"dy":2},{"dx":5,"dy":1},{"dx":5,"dy":2},{"dx":4,"dy":0},{"dx":5,"dy":1},{"dx":6,"dy":1},{"dx":9,"dy":1},{"dx":6,"dy":0},{"dx":4,"dy":0},{"dx":6,"dy":0},{"dx":6,"dy":0},{"dx":6,"dy":0},{"dx":10,"dy":-1},{"dx":0,"dy":0},{"dx":4,"dy":-1},{"dx":1,"dy":-1},{"dx":4,"dy":-1},{"dx":0,"dy":0},{"dx":1,"dy":0},{"dx":0,"dy":0},{"dx":0,"dy":0},{"dx":0,"dy":0},{"dx":1,"dy":-1},{"dx":0,"dy":-2},{"dx":0,"dy":-2},{"dx":-1,"dy":-5},{"dx":0,"dy":-1},{"dx":-2,"dy":-4},{"dx":-1,"dy":-1},{"dx":-3,"dy":-4},{"dx":-3,"dy":-4},{"dx":-3,"dy":-2},{"dx":-5,"dy":-3},{"dx":-4,"dy":-3},{"dx":-10,"dy":-3},{"dx":-7,"dy":-2},{"dx":-8,"dy":-2},{"dx":-8,"dy":-2},{"dx":-6,"dy":0},{"dx":-7,"dy":-2},{"dx":-13,"dy":-2},{"dx":-7,"dy":-1},{"dx":-6,"dy":-2},{"dx":-7,"dy":-2},{"dx":-7,"dy":-2},{"dx":-8,"dy":-3},{"dx":-14,"dy":-5},{"dx":-8,"dy":-4},{"dx":-13,"dy":-4},{"dx":-10,"dy":-3},{"dx":-10,"dy":-3},{"dx":-16,"dy":-4},{"dx":-13,"dy":-2},{"dx":-12,"dy":-3},{"dx":-9,"dy":-2},{"dx":-17,"dy":-3},{"dx":-15,"dy":-2},{"dx":-18,"dy":-4},{"dx":-13,"dy":-1},{"dx":-13,"dy":0},{"dx":-12,"dy":0},{"dx":-17,"dy":-1},{"dx":-10,"dy":0},{"dx":-10,"dy":-1},{"dx":-14,"dy":0},{"dx":-10,"dy":0},{"dx":-15,"dy":-1},{"dx":-8,"dy":0},{"dx":-9,"dy":0},{"dx":-14,"dy":1},{"dx":-8,"dy":1},{"dx":-6,"dy":1},{"dx":-6,"dy":1},{"dx":-6,"dy":1},{"dx":-7,"dy":1},{"dx":-5,"dy":1},{"dx":-11,"dy":3},{"dx":-4,"dy":1},{"dx":-7,"dy":1},{"dx":-7,"dy":1},{"dx":-6,"dy":1},{"dx":-6,"dy":1},{"dx":-11,"dy":2},{"dx":-5,"dy":0},{"dx":-6,"dy":1},{"dx":-9,"dy":0},{"dx":-5,"dy":1},{"dx":-7,"dy":0},{"dx":-15,"dy":0},{"dx":-7,"dy":0},{"dx":-8,"dy":0},{"dx":-7,"dy":0},{"dx":-6,"dy":-1},{"dx":-8,"dy":0},{"dx":-13,"dy":-3},{"dx":-6,"dy":0},{"dx":-6,"dy":-2},{"dx":-6,"dy":-1},{"dx":-6,"dy":-2},{"dx":-6,"dy":-1},{"dx":-9,"dy":-3},{"dx":-6,"dy":-2},{"dx":-4,"dy":-3},{"dx":-7,"dy":-3},{"dx":-5,"dy":-3},{"dx":-5,"dy":-4},{"dx":-8,"dy":-7},{"dx":-6,"dy":-3},{"dx":-4,"dy":-3},{"dx":-4,"dy":-3},{"dx":-4,"dy":-3},{"dx":-3,"dy":-3},{"dx":-8,"dy":-7},{"dx":-2,"dy":-5},{"dx":-4,"dy":-6},{"dx":-2,"dy":-5},{"dx":-2,"dy":-4},{"dx":-3,"dy":-6},{"dx":-1,"dy":-7},{"dx":-1,"dy":-6},{"dx":0,"dy":-5},{"dx":-1,"dy":-6},{"dx":0,"dy":-6},{"dx":0,"dy":-6},{"dx":1,"dy":-11},{"dx":2,"dy":-6},{"dx":2,"dy":-6},{"dx":1,"dy":-7},{"dx":0,"dy":-6},{"dx":0,"dy":-6},{"dx":3,"dy":-11}],"trial_type":"plugin-moving-dots-2","trial_index":24,"plugin_version":"0.0.1","time_elapsed":135936},{"task":"fixation","rt":3689,"stimulus":"<div style=\"font-size:60px;\">+</div>","response":" ","trial_type":"html-keyboard-response","trial_index":25,"plugin_version":"2.1.0","time_elapsed":139626},{"task":"movingdots","control_change":0,"mouse_data":[{"dx":0,"dy":0},{"dx":0,"dy":0},{"dx":0,"dy":0},{"dx":0,"dy":0},{"dx":0,"dy":0},{"dx":0,"dy":0},{"dx":0,"dy":0},{"dx":0,"dy":0},{"dx":0,"dy":0},{"dx":0,"dy":0},{"dx":0,"dy":0},{"dx":0,"dy":0},{"dx":0,"dy":0},{"dx":0,"dy":0},{"dx":0,"dy":0},{"dx":0,"dy":0},{"dx":0,"dy":0},{"dx":0,"dy":0},{"dx":0,"dy":0},{"dx":0,"dy":0},{"dx":0,"dy":0},{"dx":0,"dy":0},{"dx":0,"dy":0},{"dx":0,"dy":0},{"dx":0,"dy":0},{"dx":0,"dy":0},{"dx":0,"dy":0},{"dx":2,"dy":-3},{"dx":2,"dy":-7},{"dx":0,"dy":0},{"dx":0,"dy":-2},{"dx":0,"dy":-1},{"dx":0,"dy":0},{"dx":0,"dy":-1},{"dx":0,"dy":-1},{"dx":0,"dy":-2},{"dx":0,"dy":-4},{"dx":0,"dy":-1},{"dx":0,"dy":-1},{"dx":-1,"dy":-2},{"dx":-1,"dy":-5},{"dx":-1,"dy":-1},{"dx":-1,"dy":-4},{"dx":0,"dy":-1},{"dx":-1,"dy":-2},{"dx":-1,"dy":-1},{"dx":-1,"dy":-1},{"dx":0,"dy":-1},{"dx":-1,"dy":-1},{"dx":-1,"dy":-4},{"dx":0,"dy":0},{"dx":0,"dy":0},{"dx":0,"dy":0},{"dx":0,"dy":0},{"dx":0,"dy":0},{"dx":0,"dy":0},{"dx":0,"dy":0},{"dx":0,"dy":0},{"dx":0,"dy":0},{"dx":0,"dy":0},{"dx":0,"dy":0},{"dx":0,"dy":0},{"dx":0,"dy":0},{"dx":0,"dy":0},{"dx":0,"dy":0},{"dx":0,"dy":0},{"dx":0,"dy":0},{"dx":0,"dy":0},{"dx":0,"dy":0},{"dx":0,"dy":0},{"dx":0,"dy":0},{"dx":0,"dy":0},{"dx":0,"dy":0},{"dx":0,"dy":0},{"dx":0,"dy":0},{"dx":0,"dy":0},{"dx":0,"dy":0},{"dx":0,"dy":0},{"dx":0,"dy":0},{"dx":0,"dy":0},{"dx":0,"dy":0},{"dx":0,"dy":0},{"dx":0,"dy":0},{"dx":0,"dy":0},{"dx":0,"dy":0},{"dx":0,"dy":0},{"dx":0,"dy":0},{"dx":0,"dy":0},{"dx":0,"dy":0},{"dx":0,"dy":0},{"dx":0,"dy":0},{"dx":0,"dy":0},{"dx":0,"dy":0},{"dx":0,"dy":0},{"dx":0,"dy":0},{"dx":0,"dy":0},{"dx":0,"dy":0},{"dx":0,"dy":0},{"dx":0,"dy":0},{"dx":0,"dy":0},{"dx":0,"dy":0},{"dx":0,"dy":0},{"dx":0,"dy":0},{"dx":0,"dy":0},{"dx":0,"dy":0},{"dx":0,"dy":0},{"dx":0,"dy":0},{"dx":0,"dy":0},{"dx":0,"dy":0},{"dx":0,"dy":0},{"dx":0,"dy":0},{"dx":0,"dy":0},{"dx":0,"dy":0},{"dx":0,"dy":0},{"dx":0,"dy":0},{"dx":0,"dy":0},{"dx":0,"dy":0},{"dx":0,"dy":0},{"dx":0,"dy":0},{"dx":0,"dy":0},{"dx":0,"dy":0},{"dx":0,"dy":0},{"dx":0,"dy":0},{"dx":0,"dy":0},{"dx":0,"dy":0},{"dx":0,"dy":0},{"dx":0,"dy":0},{"dx":0,"dy":0},{"dx":0,"dy":0},{"dx":0,"dy":0},{"dx":0,"dy":0},{"dx":0,"dy":0},{"dx":0,"dy":0},{"dx":0,"dy":0},{"dx":0,"dy":0},{"dx":0,"dy":0},{"dx":0,"dy":0},{"dx":0,"dy":0},{"dx":0,"dy":0},{"dx":0,"dy":0},{"dx":-4,"dy":-1},{"dx":-1,"dy":-1},{"dx":-4,"dy":-1},{"dx":-5,"dy":-2},{"dx":-5,"dy":-1},{"dx":-1,"dy":-1},{"dx":-5,"dy":0},{"dx":-5,"dy":-2},{"dx":-5,"dy":0},{"dx":-9,"dy":-1},{"dx":-1,"dy":0},{"dx":-5,"dy":0},{"dx":-6,"dy":0},{"dx":-5,"dy":0},{"dx":0,"dy":0},{"dx":-5,"dy":0},{"dx":-1,"dy":0},{"dx":-2,"dy":0},{"dx":-1,"dy":0},{"dx":-1,"dy":0},{"dx":0,"dy":0},{"dx":-1,"dy":0},{"dx":-2,"dy":0},{"dx":-1,"dy":0},{"dx":0,"dy":0},{"dx":-1,"dy":-1},{"dx":-4,"dy":0},{"dx":0,"dy":0},{"dx":-5,"dy":0},{"dx":-1,"dy":0},{"dx":-5,"dy":-1},{"dx":-1,"dy":-1},{"dx":-4,"dy":0},{"dx":-5,"dy":0},{"dx":-4,"dy":-1},{"dx":-1,"dy":0},{"dx":-3,"dy":0},{"dx":-6,"dy":-1},{"dx":-5,"dy":-1},{"dx":-4,"dy":-1},{"dx":-5,"dy":-1},{"dx":-5,"dy":-1},{"dx":-6,"dy":-1},{"dx":-5,"dy":0},{"dx":-5,"dy":-1},{"dx":-6,"dy":-1},{"dx":-12,"dy":-4},{"dx":-9,"dy":-2},{"dx":-9,"dy":-3},{"dx":-16,"dy":-5},{"dx":-10,"dy":-1},{"dx":-6,"dy":-1},{"dx":-6,"dy":-1},{"dx":-3,"dy":-1},{"dx":0,"dy":0},{"dx":0,"dy":0},{"dx":0,"dy":0},{"dx":0,"dy":0},{"dx":0,"dy":0},{"dx":0,"dy":0},{"dx":0,"dy":0},{"dx":0,"dy":0},{"dx":0,"dy":0},{"dx":0,"dy":0},{"dx":0,"dy":0},{"dx":0,"dy":0},{"dx":0,"dy":0},{"dx":0,"dy":0},{"dx":0,"dy":0},{"dx":0,"dy":0},{"dx":0,"dy":0},{"dx":0,"dy":0},{"dx":0,"dy":0},{"dx":0,"dy":0},{"dx":0,"dy":0},{"dx":0,"dy":0},{"dx":0,"dy":0},{"dx":0,"dy":0},{"dx":0,"dy":0},{"dx":0,"dy":0},{"dx":0,"dy":0},{"dx":0,"dy":0},{"dx":0,"dy":0},{"dx":-6,"dy":-4},{"dx":-4,"dy":-3},{"dx":-7,"dy":-6},{"dx":-5,"dy":-4},{"dx":-6,"dy":-4},{"dx":-4,"dy":-3},{"dx":-5,"dy":-5},{"dx":-3,"dy":-5},{"dx":-10,"dy":-10},{"dx":-4,"dy":-4},{"dx":-4,"dy":-5},{"dx":-4,"dy":-8},{"dx":-4,"dy":-8},{"dx":-3,"dy":-9},{"dx":-7,"dy":-13},{"dx":-3,"dy":-5},{"dx":-5,"dy":-7},{"dx":-4,"dy":-6},{"dx":-4,"dy":-5},{"dx":-4,"dy":-5},{"dx":-7,"dy":-7},{"dx":-3,"dy":-3},{"dx":-3,"dy":-3},{"dx":-6,"dy":-3},{"dx":-5,"dy":-3},{"dx":-4,"dy":-3},{"dx":-11,"dy":-5},{"dx":-6,"dy":-4},{"dx":-5,"dy":-3},{"dx":-6,"dy":-4},{"dx":-5,"dy":-4},{"dx":-6,"dy":-3},{"dx":-10,"dy":-4},{"dx":-6,"dy":-2},{"dx":-6,"dy":-1},{"dx":-7,"dy":-2},{"dx":-7,"dy":-1},{"dx":-6,"dy":-1},{"dx":-6,"dy":0},{"dx":-12,"dy":1},{"dx":-6,"dy":2},{"dx":0,"dy":0},{"dx":-3,"dy":0},{"dx":0,"dy":0},{"dx"