[{"success":true,"rt":92194,"trial_type":"fullscreen","trial_index":0,"plugin_version":"2.1.0","time_elapsed":93262},{"task":"fixation","rt":4150,"stimulus":"<div style=\"font-size:60px;\">+</div>","response":" ","trial_type":"html-keyboard-response","trial_index":1,"plugin_version":"2.1.0","time_elapsed":97416},{"task":"movingdots","control_change":0,"mouse_data":[{"dx":0,"dy":0},{"dx":0,"dy":0},{"dx":0,"dy":0},{"dx":0,"dy":0},{"dx":0,"dy":0},{"dx":0,"dy":0},{"dx":0,"dy":0},{"dx":0,"dy":0},{"dx":0,"dy":0},{"dx":0,"dy":0},{"dx":0,"dy":0},{"dx":0,"dy":0},{"dx":0,"dy":0},{"dx":0,"dy":0},{"dx":0,"dy":0},{"dx":0,"dy":0},{"dx":0,"dy":0},{"dx":0,"dy":0},{"dx":0,"dy":0},{"dx":0,"dy":0},{"dx":0,"dy":0},{"dx":0,"dy":0},{"dx":0,"dy":0},{"dx":0,"dy":0},{"dx":0,"dy":0},{"dx":0,"dy":0},{"dx":0,"dy":0},{"dx":0,"dy":0},{"dx":0,"dy":0},{"dx":0,"dy":0},{"dx":0,"dy":0},{"dx":0,"dy":0},{"dx":0,"dy":0},{"dx":0,"dy":0},{"dx":0,"dy":0},{"dx":0,"dy":0},{"dx":0,"dy":0},{"dx":0,"dy":0},{"dx":1,"dy":-1},{"dx":1,"dy":0},{"dx":0,"dy":0},{"dx":0,"dy":0},{"dx":0,"dy":0},{"dx":0,"dy":0},{"dx":0,"dy":0},{"dx":0,"dy":0},{"dx":0,"dy":0},{"dx":0,"dy":0},{"dx":0,"dy":0},{"dx":0,"dy":0},{"dx":0,"dy":0},{"dx":0,"dy":0},{"dx":0,"dy":0},{"dx":0,"dy":0},{"dx":0,"dy":0},{"dx":2,"dy":-1},{"dx":1,"dy":0},{"dx":2,"dy":-2},{"dx":3,"dy":0},{"dx":2,"dy":-1},{"dx":2,"dy":-1},{"dx":3,"dy":-1},{"dx":8,"dy":-1},{"dx":0,"dy":0},{"dx":8,"dy":-2},{"dx":0,"dy":0},{"dx":2,"dy":0},{"dx":8,"dy":-2},{"dx":6,"dy":-2},{"dx":8,"dy":0},{"dx":7,"dy":-1},{"dx":0,"dy":0},{"dx":2,"dy":0},{"dx":3,"dy":0},{"dx":2,"dy":0},{"dx":3,"dy":0},{"dx":7,"dy":4},{"dx":1,"dy":1},{"dx":1,"dy":2},{"dx":2,"dy":6},{"dx":1,"dy":1},{"dx":1,"dy":2},{"dx":3,"dy":8},{"dx":0,"dy":0},{"dx":1,"dy":3},{"dx":2,"dy":8},{"dx":0,"dy":1},{"dx":0,"dy":2},{"dx":0,"dy":3},{"dx":1,"dy":2},{"dx":1,"dy":2},{"dx":0,"dy":9},{"dx":0,"dy":0},{"dx":0,"dy":2},{"dx":0,"dy":3},{"dx":0,"dy":2},{"dx":-1,"dy":1},{"dx":0,"dy":3},{"dx":-1,"dy":2},{"dx":0,"dy":2},{"dx":-2,"dy":3},{"dx":-1,"dy":2},{"dx":-1,"dy":1},{"dx":-1,"dy":2},{"dx":-2,"dy":2},{"dx":-1,"dy":1},{"dx":-3,"dy":1},{"dx":-1,"dy":1},{"dx":-2,"dy":1},{"dx":-2,"dy":0},{"dx":-3,"dy":1},{"dx":-2,"dy":1},{"dx":-2,"dy":1},{"dx":-3,"dy":0},{"dx":-2,"dy":0},{"dx":-1,"dy":1},{"dx":-3,"dy":0},{"dx":-2,"dy":0},{"dx":-4,"dy":0},{"dx":-7,"dy":0},{"dx":-1,"dy":0},{"dx":-8,"dy":-1},{"dx":-7,"dy":0},{"dx":-1,"dy":0},{"dx":-8,"dy":0},{"dx":-2,"dy":0},{"dx":-7,"dy":-1},{"dx":-2,"dy":-1},{"dx":-8,"dy":-2},{"dx":-3,"dy":-1},{"dx":-5,"dy":-3},{"dx":-2,"dy":0},{"dx":-2,"dy":-1},{"dx":-3,"dy":-2},{"dx":-4,"dy":-1},{"dx":-6,"dy":-2},{"dx":-2,"dy":-1},{"dx":-2,"dy":-2},{"dx":-6,"dy":-6},{"dx":-1,"dy":0},{"dx":-7,"dy":-8},{"dx":-1,"dy":0},{"dx":-6,"dy":-6},{"dx":-2,"dy":-2},{"dx":-6,"dy":-4},{"dx":-1,"dy":0},{"dx":-3,"dy":-2},{"dx":-6,"dy":0},{"dx":-2,"dy":0},{"dx":-10,"dy":0},{"dx":-1,"dy":0},{"dx":-1,"dy":0},{"dx":-3,"dy":0},{"dx":-2,"dy":1},{"dx":-5,"dy":5},{"dx":-6,"dy":7},{"dx":0,"dy":1},{"dx":-2,"dy":2},{"dx":-4,"dy":7},{"dx":-1,"dy":2},{"dx":-1,"dy":2},{"dx":-2,"dy":4},{"dx":-1,"dy":1},{"dx":-1,"dy":3},{"dx":-1,"dy":4},{"dx":-2,"dy":8},{"dx":0,"dy":1},{"dx":-1,"dy":3},{"dx":0,"dy":3},{"dx":-1,"dy":7},{"dx":-1,"dy":10},{"dx":0,"dy":1},{"dx":0,"dy":9},{"dx":0,"dy":1},{"dx":0,"dy":2},{"dx":0,"dy":1},{"dx":0,"dy":2},{"dx":0,"dy":1},{"dx":0,"dy":2},{"dx":1,"dy":1},{"dx":2,"dy":2},{"dx":1,"dy":1},{"dx":1,"dy":2},{"dx":1,"dy":1},{"dx":1,"dy":1},{"dx":1,"dy":2},{"dx":2,"dy":2},{"dx":5,"dy":5},{"dx":2,"dy":0},{"dx":2,"dy":2},{"dx":2,"dy":1},{"dx":1,"dy":1},{"dx":2,"dy":1},{"dx":8,"dy":3},{"dx":1,"dy":0},{"dx":2,"dy":0},{"dx":9,"dy":2},{"dx":0,"dy":0},{"dx":8,"dy":0},{"dx":1,"dy":0},{"dx":2,"dy":0},{"dx":6,"dy":0},{"dx":1,"dy":0},{"dx":9,"dy":-1},{"dx":1,"dy":-1},{"dx":7,"dy":-1},{"dx":0,"dy":0},{"dx":3,"dy":-1},{"dx":2,"dy":0},{"dx":2,"dy":-1},{"dx":7,"dy":-2},{"dx":1,"dy":-1},{"dx":7,"dy":-3},{"dx":7,"dy":-4},{"dx":1,"dy":-1},{"dx":5,"dy":-3},{"dx":7,"dy":-4},{"dx":6,"dy":-5},{"dx":1,"dy":0},{"dx":6,"dy":-6},{"dx":7,"dy":-6},{"dx":1,"dy":0},{"dx":5,"dy":-6},{"dx":1,"dy":-2},{"dx":6,"dy":-6},{"dx":6,"dy":-6},{"dx":0,"dy":-1},{"dx":1,"dy":-1},{"dx":7,"dy":-5},{"dx":0,"dy":0},{"dx":1,"dy":-1},{"dx":2,"dy":-1},{"dx":1,"dy":-2},{"dx":1,"dy":0},{"dx":2,"dy":-1},{"dx":3,"dy":-1},{"dx":1,"dy":-1},{"dx":2,"dy":-1},{"dx":3,"dy":-1},{"dx":1,"dy":-1},{"dx":2,"dy":-1},{"dx":3,"dy":-1},{"dx":2,"dy":-1},{"dx":2,"dy":0},{"dx":3,"dy":-2},{"dx":8,"dy":-2},{"dx":1,"dy":0},{"dx":8,"dy":-2},{"dx":1,"dy":0},{"dx":1,"dy":-1},{"dx":9,"dy":-1},{"dx":0,"dy":0},{"dx":1,"dy":-2},{"dx":3,"dy":0},{"dx":7,"dy":-1},{"dx":1,"dy":-1},{"dx":3,"dy":-1},{"dx":6,"dy":-2},{"dx":2,"dy":0},{"dx":8,"dy":-1},{"dx":1,"dy":0},{"dx":2,"dy":0},{"dx":7,"dy":1},{"dx":1,"dy":1},{"dx":2,"dy":0},{"dx":2,"dy":1},{"dx":2,"dy":2},{"dx":1,"dy":1},{"dx":2,"dy":1},{"dx":1,"dy":1},{"dx":1,"dy":2},{"dx":1,"dy":2},{"dx":1,"dy":1},{"dx":0,"dy":1},{"dx":1,"dy":2},{"dx":1,"dy":1},{"dx":0,"dy":3},{"dx":2,"dy":9},{"dx":0,"dy":2},{"dx":0,"dy":1},{"dx":1,"dy":4},{"dx":0,"dy":2},{"dx":0,"dy":2},{"dx":0,"dy":2},{"dx":0,"dy":1},{"dx":0,"dy":1},{"dx":0,"dy":3},{"dx":0,"dy":1},{"dx":0,"dy":2},{"dx":-1,"dy":2},{"dx":-2,"dy":2},{"dx":-1,"dy":1},{"dx":-2,"dy":3},{"dx":-2,"dy":1},{"dx":-1,"dy":2},{"dx":-3,"dy":3},{"dx":-5,"dy":4},{"dx":-2,"dy":1},{"dx":-2,"dy":1},{"dx":-2,"dy":1},{"dx":-2,"dy":0},{"dx":-2,"dy":1},{"dx":-3,"dy":0},{"dx":-2,"dy":0},{"dx":-3,"dy":0},{"dx":-2,"dy":0},{"dx":-1,"dy":-1},{"dx":-2,"dy":-2},{"dx":-1,"dy":-1},{"dx":-1,"dy":-2},{"dx":-3,"dy":-10},{"dx":0,"dy":-2},{"dx":-1,"dy":-2},{"dx":-1,"dy":-10},{"dx":-1,"dy":-1},{"dx":-1,"dy":-2},{"dx":0,"dy":-4},{"dx":-1,"dy":-3},{"dx":-1,"dy":-1},{"dx":-1,"dy":-3},{"dx":0,"dy":-2},{"dx":-1,"dy":-2},{"dx":-1,"dy":-3},{"dx":-1,"dy":-3},{"dx":-1,"dy":-3},{"dx":-1,"dy":-3},{"dx":-1,"dy":-3},{"dx":-1,"dy":-1},{"dx":-1,"dy":-2},{"dx":-1,"dy":-2},{"dx":-1,"dy":-1},{"dx":-1,"dy":-1},{"dx":-2,"dy":-2},{"dx":-2,"dy":-2},{"dx":-1,"dy":-1},{"dx":-2,"dy":-3},{"dx":-1,"dy":-1},{"dx":-1,"dy":-2},{"dx":-2,"dy":-3},{"dx":-2,"dy":-2},{"dx":-6,"dy":-4},{"dx":-1,"dy":-1},{"dx":-2,"dy":-2},{"dx":-2,"dy":-2},{"dx":-1,"dy":-1},{"dx":-2,"dy":-1},{"dx":-1,"dy":-2},{"dx":-4,"dy":-2},{"dx":-5,"dy":-6},{"dx":-1,"dy":-1},{"dx":-6,"dy":-5},{"dx":-2,"dy":-1},{"dx":-2,"dy":-1},{"dx":-3,"dy":-2},{"dx":-1,"dy":0},{"dx":0,"dy":0},{"dx":-2,"dy":-2},{"dx":-2,"dy":-1},{"dx":-1,"dy":-1},{"dx":-2,"dy":-1},{"dx":-2,"dy":-1},{"dx":-2,"dy":-1},{"dx":-2,"dy":-1},{"dx":-1,"dy":-1},{"dx":-1,"dy":-1},{"dx":-2,"dy":-1},{"dx":-2,"dy":-2},{"dx":-1,"dy":-1},{"dx":-2,"dy":-2},{"dx":-2,"dy":-1},{"dx":-1,"dy":0},{"dx":-3,"dy":-2},{"dx":-2,"dy":-1},{"dx":-1,"dy":-1},{"dx":-4,"dy":-2},{"dx":-1,"dy":0},{"dx":-1,"dy":-1},{"dx":-1,"dy":-1},{"dx":-1,"dy":0},{"dx":0,"dy":-1},{"dx":-3,"dy":0},{"dx":-1,"dy":-1},{"dx":-2,"dy":-1},{"dx":-10,"dy":-2},{"dx":-1,"dy":0},{"dx":-1,"dy":-1},{"dx":-3,"dy":-1},{"dx":-3,"dy":-1},{"dx":-6,"dy":-2},{"dx":-2,"dy":-1},{"dx":-7,"dy":-2},{"dx":-7,"dy":-4},{"dx":-9,"dy":-5},{"dx":-6,"dy":-4},{"dx":-1,"dy":-1},{"dx":-2,"dy":-1},{"dx":-5,"dy":-6},{"dx":-4,"dy":-6},{"dx":-1,"dy":-2},{"dx":-3,"dy":-7},{"dx":-1,"dy":-1},{"dx":-4,"dy":-9},{"dx":-1,"dy":-2},{"dx":-3,"dy":-9},{"dx":-1,"dy":-3},{"dx":-2,"dy":-7},{"dx":0,"dy":-1},{"dx":-2,"dy":-4},{"dx":-1,"dy":-9},{"dx":0,"dy":-2},{"dx":-1,"dy":-10},{"dx":0,"dy":-1},{"dx":0,"dy":-2},{"dx":0,"dy":-4},{"dx":1,"dy":-9},{"dx":0,"dy":-2},{"dx":1,"dy":-1},{"dx":1,"dy":-4},{"dx":4,"dy":-7},{"dx":1,"dy":0},{"dx":1,"dy":-3},{"dx":4,"dy":-6},{"dx":1,"dy":-1},{"dx":3,"dy":-3},{"dx":1,"dy":-1},{"dx":2,"dy":-2},{"dx":7,"dy":-6},{"dx":1,"dy":-1},{"dx":5,"dy":-5},{"dx":5,"dy":-3},{"dx":1,"dy":-1},{"dx":6,"dy":-3},{"dx":7,"dy":-4},{"dx":2,"dy":-1},{"dx":7,"dy":-2},{"dx":2,"dy":-2},{"dx":6,"dy":-3},{"dx":1,"dy":-1},{"dx":9,"dy":-3},{"dx":1,"dy":0},{"dx":8,"dy":-1},{"dx":9,"dy":-2},{"dx":0,"dy":0},{"dx":8,"dy":0},{"dx":8,"dy":0},{"dx":7,"dy":0},{"dx":1,"dy":0},{"dx":8,"dy":2},{"dx":2,"dy":0},{"dx":6,"dy":3},{"dx":7,"dy":1},{"dx":7,"dy":3},{"dx":1,"dy":0}],"trial_type":"plugin-moving-dots-2","trial_index":2,"plugin_version":"0.0.1","time_elapsed":104932},{"task":"fixation","rt":2002,"stimulus":"<div style=\"font-size:60px;\">+</div>","response":" ","trial_type":"html-keyboard-response","trial_index":3,"plugin_version":"2.1.0","time_elapsed":106935},{"task":"movingdots","control_change":0,"mouse_data":[{"dx":0,"dy":0},{"dx":0,"dy":0},{"dx":0,"dy":0},{"dx":0,"dy":0},{"dx":0,"dy":0},{"dx":0,"dy":0},{"dx":0,"dy":0},{"dx":0,"dy":0},{"dx":0,"dy":0},{"dx":0,"dy":0},{"dx":0,"dy":0},{"dx":0,"dy":0},{"dx":0,"dy":0},{"dx":0,"dy":0},{"dx":0,"dy":0},{"dx":0,"dy":0},{"dx":0,"dy":0},{"dx":0,"dy":0},{"dx":0,"dy":0},{"dx":0,"dy":0},{"dx":0,"dy":0},{"dx":0,"dy":0},{"dx":0,"dy":0},{"dx":0,"dy":0},{"dx":0,"dy":0},{"dx":0,"dy":0},{"dx":0,"dy":0},{"dx":0,"dy":0},{"dx":0,"dy":0},{"dx":0,"dy":0},{"dx":0,"dy":0},{"dx":0,"dy":0},{"dx":0,"dy":0},{"dx":0,"dy":0},{"dx":0,"dy":0},{"dx":0,"dy":0},{"dx":-2,"dy":0},{"dx":-1,"dy":0},{"dx":-1,"dy":0},{"dx":0,"dy":0},{"dx":-2,"dy":0},{"dx":0,"dy":0},{"dx":-1,"dy":0},{"dx":-1,"dy":0},{"dx":-2,"dy":-2},{"dx":-1,"dy":0},{"dx":-3,"dy":-1},{"dx":-2,"dy":-1},{"dx":-1,"dy":0},{"dx":-3,"dy":-1},{"dx":-1,"dy":-1},{"dx":-2,"dy":0},{"dx":-2,"dy":-1},{"dx":-1,"dy":-1},{"dx":-1,"dy":-1},{"dx":-3,"dy":-1},{"dx":-1,"dy":-1},{"dx":-1,"dy":-2},{"dx":-8,"dy":-4},{"dx":-1,"dy":-1},{"dx":-6,"dy":-4},{"dx":-6,"dy":-6},{"dx":-6,"dy":-6},{"dx":-7,"dy":-8},{"dx":-1,"dy":-2},{"dx":-7,"dy":-7},{"dx":0,"dy":0},{"dx":-2,"dy":-1},{"dx":-2,"dy":-4},{"dx":-2,"dy":-2},{"dx":-2,"dy":-2},{"dx":-3,"dy":-2},{"dx":-1,"dy":-1},{"dx":-1,"dy":-2},{"dx":-3,"dy":-1},{"dx":-2,"dy":-2},{"dx":-3,"dy":0},{"dx":-2,"dy":-2},{"dx":-3,"dy":-1},{"dx":-2,"dy":-2},{"dx":-9,"dy":-4},{"dx":-1,"dy":0},{"dx":-2,"dy":-1},{"dx":-7,"dy":-2},{"dx":-2,"dy":0},{"dx":-9,"dy":-3},{"dx":-1,"dy":0},{"dx":-2,"dy":0},{"dx":-2,"dy":-1},{"dx":-3,"dy":0},{"dx":-1,"dy":0},{"dx":-1,"dy":-1},{"dx":-1,"dy":0},{"dx":-2,"dy":0},{"dx":-1,"dy":0},{"dx":-3,"dy":0},{"dx":-1,"dy":0},{"dx":-2,"dy":0},{"dx":-2,"dy":0},{"dx":-2,"dy":0},{"dx":-1,"dy":0},{"dx":-4,"dy":0},{"dx":-7,"dy":2},{"dx":-1,"dy":0},{"dx":-3,"dy":1},{"dx":-2,"dy":1},{"dx":-2,"dy":1},{"dx":-3,"dy":1},{"dx":-1,"dy":1},{"dx":-2,"dy":0},{"dx":-2,"dy":2},{"dx":-2,"dy":0},{"dx":-2,"dy":1},{"dx":-2,"dy":2},{"dx":-2,"dy":1},{"dx":-1,"dy":1},{"dx":-3,"dy":2},{"dx":-2,"dy":1},{"dx":-1,"dy":1},{"dx":-8,"dy":6},{"dx":0,"dy":0},{"dx":-1,"dy":2},{"dx":-2,"dy":1},{"dx":-2,"dy":2},{"dx":0,"dy":1},{"dx":-2,"dy":2},{"dx":0,"dy":1},{"dx":0,"dy":1},{"dx":-2,"dy":2},{"dx":-1,"dy":2},{"dx":-1,"dy":2},{"dx":-1,"dy":3},{"dx":-1,"dy":3},{"dx":-1,"dy":2},{"dx":0,"dy":2},{"dx":0,"dy":2},{"dx":-1,"dy":2},{"dx":0,"dy":4},{"dx":0,"dy":2},{"dx":0,"dy":2},{"dx":0,"dy":3},{"dx":0,"dy":2},{"dx":0,"dy":1},{"dx":0,"dy":3},{"dx":0,"dy":1},{"dx":0,"dy":2},{"dx":0,"dy":1},{"dx":1,"dy":1},{"dx":1,"dy":2},{"dx":5,"dy":8},{"dx":0,"dy":0},{"dx":1,"dy":2},{"dx":3,"dy":7},{"dx":1,"dy":1},{"dx":2,"dy":2},{"dx":1,"dy":1},{"dx":1,"dy":1},{"dx":2,"dy":2},{"dx":3,"dy":0},{"dx":1,"dy":1},{"dx":2,"dy":1},{"dx":2,"dy":1},{"dx":6,"dy":2},{"dx":0,"dy":0},{"dx":9,"dy":2},{"dx":0,"dy":0},{"dx":2,"dy":0},{"dx":3,"dy":0},{"dx":2,"dy":0},{"dx":2,"dy":-1},{"dx":6,"dy":0},{"dx":3,"dy":0},{"dx":7,"dy":-2},{"dx":1,"dy":-1},{"dx":9,"dy":-1},{"dx":0,"dy":0},{"dx":2,"dy":-1},{"dx":7,"dy":-1},{"dx":5,"dy":-1},{"dx":8,"dy":-4},{"dx":1,"dy":0},{"dx":2,"dy":-1},{"dx":8,"dy":-5},{"dx":1,"dy":-1},{"dx":4,"dy":-3},{"dx":2,"dy":-1},{"dx":2,"dy":-3},{"dx":5,"dy":-3},{"dx":0,"dy":-1},{"dx":8,"dy":-5},{"dx":1,"dy":0},{"dx":7,"dy":-4},{"dx":6,"dy":-5},{"dx":1,"dy":-1},{"dx":1,"dy":-1},{"dx":6,"dy":-3},{"dx":1,"dy":-2},{"dx":3,"dy":-1},{"dx":2,"dy":-2},{"dx":2,"dy":0},{"dx":0,"dy":-1},{"dx":1,"dy":0},{"dx":2,"dy":-2},{"dx":7,"dy":-1},{"dx":7,"dy":-4},{"dx":1,"dy":0},{"dx":7,"dy":-2},{"dx":10,"dy":-1},{"dx":8,"dy":-1},{"dx":8,"dy":-1},{"dx":9,"dy":-1},{"dx":2,"dy":0},{"dx":7,"dy":-1},{"dx":9,"dy":0},{"dx":1,"dy":0},{"dx":1,"dy":0},{"dx":7,"dy":0},{"dx":0,"dy":0},{"dx":1,"dy":0},{"dx":7,"dy":2},{"dx":2,"dy":1},{"dx":7,"dy":2},{"dx":3,"dy":1},{"dx":7,"dy":4},{"dx":0,"dy":0},{"dx":2,"dy":2},{"dx":5,"dy":4},{"dx":1,"dy":0},{"dx":7,"dy":6},{"dx":0,"dy":1},{"dx":2,"dy":1},{"dx":4,"dy":8},{"dx":2,"dy":0},{"dx":0,"dy":2},{"dx":2,"dy":3},{"dx":2,"dy":7},{"dx":0,"dy":1},{"dx":2,"dy":10},{"dx":0,"dy":1},{"dx":0,"dy":9},{"dx":0,"dy":2},{"dx":0,"dy":9},{"dx":0,"dy":2},{"dx":-1,"dy":8},{"dx":-1,"dy":10},{"dx":0,"dy":1},{"dx":-1,"dy":2},{"dx":0,"dy":3},{"dx":0,"dy":1},{"dx":-1,"dy":2},{"dx":-1,"dy":2},{"dx":0,"dy":3},{"dx":-1,"dy":3},{"dx":-1,"dy":2},{"dx":-1,"dy":1},{"dx":-4,"dy":8},{"dx":-1,"dy":0},{"dx":-1,"dy":1},{"dx":-5,"dy":4},{"dx":-7,"dy":5},{"dx":0,"dy":0},{"dx":-2,"dy":2},{"dx":-7,"dy":3},{"dx":-2,"dy":1},{"dx":-8,"dy":3},{"dx":-1,"dy":0},{"dx":-9,"dy":2},{"dx":0,"dy":0},{"dx":-8,"dy":2},{"dx":-2,"dy":0},{"dx":-9,"dy":0},{"dx":-9,"dy":0},{"dx":-1,"dy":0},{"dx":-2,"dy":-1},{"dx":-7,"dy":0},{"dx":-9,"dy":-1},{"dx":-1,"dy":0},{"dx":-9,"dy":-2},{"dx":-8,"dy":-2},{"dx":-2,"dy":0},{"dx":-7,"dy":-3},{"dx":-9,"dy":-1},{"dx":-2,"dy":-1},{"dx":-8,"dy":-1},{"dx":-2,"dy":-1},{"dx":-2,"dy":-1},{"dx":-2,"dy":-1},{"dx":-2,"dy":0},{"dx":-2,"dy":-1},{"dx":-3,"dy":-1},{"dx":-1,"dy":0},{"dx":-2,"dy":-1},{"dx":-9,"dy":-2},{"dx":-1,"dy":0},{"dx":-8,"dy":-3},{"dx":-12,"dy":-6},{"dx":0,"dy":-1},{"dx":-7,"dy":-4},{"dx":-7,"dy":-6},{"dx":0,"dy":0},{"dx":-5,"dy":-5},{"dx":-12,"dy":-10},{"dx":-7,"dy":-5},{"dx":-6,"dy":-4},{"dx":-5,"dy":-5},{"dx":-8,"dy":-4},{"dx":-1,"dy":-1},{"dx":-7,"dy":-3},{"dx":-11,"dy":-4},{"dx":-8,"dy":0},{"dx":-9,"dy":0},{"dx":-8,"dy":1},{"dx":-10,"dy":3},{"dx":-1,"dy":0},{"dx":-7,"dy":3},{"dx":-1,"dy":1},{"dx":-5,"dy":5},{"dx":-7,"dy":7},{"dx":0,"dy":1},{"dx":-5,"dy":6},{"dx":-1,"dy":1},{"dx":-1,"dy":2},{"dx":-1,"dy":2},{"dx":-5,"dy":8},{"dx":0,"dy":2},{"dx":-4,"dy":8},{"dx":0,"dy":2},{"dx":-1,"dy":9},{"dx":-1,"dy":1},{"dx":-1,"dy":9},{"dx":-1,"dy":10},{"dx":0,"dy":1},{"dx":-1,"dy":17},{"dx":0,"dy":6},{"dx":0,"dy":11},{"dx":0,"dy":9},{"dx":1,"dy":1},{"dx":0,"dy":2},{"dx":4,"dy":6},{"dx":0,"dy":1},{"dx":4,"dy":6},{"dx":1,"dy":2},{"dx":2,"dy":2},{"dx":4,"dy":5},{"dx":3,"dy":1},{"dx":6,"dy":4},{"dx":2,"dy":0},{"dx":8,"dy":5},{"dx":7,"dy":2},{"dx":0,"dy":1},{"dx":2,"dy":0},{"dx":2,"dy":0},{"dx":2,"dy":2},{"dx":8,"dy":1},{"dx":7,"dy":2},{"dx":1,"dy":1},{"dx":10,"dy":2},{"dx":9,"dy":1},{"dx":1,"dy":0},{"dx":8,"dy":1},{"dx":8,"dy":0},{"dx":0,"dy":0},{"dx":7,"dy":0},{"dx":10,"dy":0},{"dx":0,"dy":0},{"dx":9,"dy":-2},{"dx":6,"dy":-2},{"dx":2,"dy":-1},{"dx":8,"dy":-4},{"dx":6,"dy":-2},{"dx":2,"dy":-2},{"dx":7,"dy":-4},{"dx":2,"dy":0},{"dx":5,"dy":-4},{"dx":1,"dy":0},{"dx":2,"dy":-1},{"dx":7,"dy":-3},{"dx":1,"dy":-1},{"dx":7,"dy":-2},{"dx":10,"dy":-6},{"dx":5,"dy":-4},{"dx":8,"dy":-6},{"dx":1,"dy":0},{"dx":6,"dy":-6},{"dx":5,"dy":-5},{"dx":1,"dy":-2},{"dx":6,"dy":-7},{"dx":7,"dy":-5},{"dx":6,"dy":-7},{"dx":8,"dy":-7},{"dx":1,"dy":-1},{"dx":5,"dy":-6},{"dx":5,"dy":-6},{"dx":5,"dy":-9},{"dx":5,"dy":-6},{"dx":4,"dy":-6},{"dx":6,"dy":-9},{"dx":1,"dy":0},{"dx":4,"dy":-5},{"dx":6,"dy":-6},{"dx":4,"dy":-3},{"dx":1,"dy":-1},{"dx":6,"dy":-4},{"dx":2,"dy":-1},{"dx":2,"dy":-2},{"dx":2,"dy":-1},{"dx":2,"dy":-1},{"dx":2,"dy":-1},{"dx":7,"dy":-4},{"dx":7,"dy":-2},{"dx":1,"dy":-1},{"dx":8,"dy":-1},{"dx":7,"dy":-1},{"dx":7,"dy":0},{"dx":2,"dy":-1},{"dx":6,"dy":-1},{"dx":0,"dy":0},{"dx":1,"dy":0},{"dx":2,"dy":0},{"dx":0,"dy":0},{"dx":0,"dy":0},{"dx":1,"dy":0},{"dx":1,"dy":0},{"dx":1,"dy":0},{"dx":1,"dy":2},{"dx":1,"dy":1},{"dx":2,"dy":4},{"dx":1,"dy":1},{"dx":0,"dy":1},{"dx":0,"dy":0},{"dx":0,"dy":0},{"dx":0,"dy":0},{"dx":0,"dy":0},{"dx":0,"dy":1},{"dx":1,"dy":2},{"dx":0,"dy":2},{"dx":0,"dy":2},{"dx":0,"dy":3},{"dx":-1,"dy":2},{"dx":-1,"dy":2},{"dx":0,"dy":2},{"dx":-2,"dy":2},{"dx":-1,"dy":1},{"dx":-1,"dy":1},{"dx":-3,"dy":2},{"dx":-1,"dy":0},{"dx":-2,"dy":2},{"dx":-2,"dy":1},{"dx":-2,"dy":0},{"dx":-3,"dy":2},{"dx":-1,"dy":0},{"dx":-4,"dy":2},{"dx":-8,"dy":1}],"trial_type":"plugin-moving-dots-2","trial_index":4,"plugin_version":"0.0.1","time_elapsed":114448},{"task":"fixation","rt":1541,"stimulus":"<div style=\"font-size:60px;\">+</div>","response":" ","trial_type":"html-keyboard-response","trial_index":5,"plugin_version":"2.1.0","time_elapsed":115991},{"task":"movingdots","control_change":0,"mouse_data":[{"dx":0,"dy":0},{"dx":0,"dy":0},{"dx":0,"dy":0},{"dx":0,"dy":0},{"dx":0,"dy":0},{"dx":0,"dy":0},{"dx":0,"dy":0},{"dx":0,"dy":0},{"dx":0,"dy":0},{"dx":0,"dy":0},{"dx":0,"dy":0},{"dx":0,"dy":0},{"dx":0,"dy":0},{"dx":0,"dy":0},{"dx":0,"dy":0},{"dx":0,"dy":0},{"dx":0,"dy":0},{"dx":0,"dy":0},{"dx":0,"dy":0},{"dx":0,"dy":0},{"dx":0,"dy":0},{"dx":0,"dy":0},{"dx":0,"dy":0},{"dx":0,"dy":0},{"dx":0,"dy":0},{"dx":0,"dy":0},{"dx":0,"dy":0},{"dx":0,"dy":0},{"dx":-1,"dy":-1},{"dx":0,"dy":-9},{"dx":0,"dy":-1},{"dx":0,"dy":-11},{"dx":1,"dy":-1},{"dx":0,"dy":-2},{"dx":1,"dy":-3},{"dx":0,"dy":-3},{"dx":0,"dy":-2},{"dx":0,"dy":-1},{"dx":0,"dy":-3},{"dx":0,"dy":-3},{"dx":1,"dy":-1},{"dx":0,"dy":-4},{"dx":0,"dy":-2},{"dx":3,"dy":-9},{"dx":0,"dy":-2},{"dx":1,"dy":-3},{"dx":1,"dy":-7},{"dx":1,"dy":-11},{"dx":0,"dy":0},{"dx":0,"dy":-3},{"dx":0,"dy":-10},{"dx":0,"dy":0},{"dx":0,"dy":-3},{"dx":4,"dy":-10},{"dx":0,"dy":-1},{"dx":1,"dy":-3},{"dx":3,"dy":-7},{"dx":1,"dy":-1},{"dx":0,"dy":-1},{"dx":1,"dy":-2},{"dx":0,"dy":-1},{"dx":1,"dy":-2},{"dx":7,"dy":-5},{"dx":5,"dy":-3},{"dx":1,"dy":-1},{"dx":3,"dy":-1},{"dx":7,"dy":-2},{"dx":2,"dy":0},{"dx":7,"dy":0},{"dx":1,"dy":0},{"dx":8,"dy":2},{"dx":1,"dy":1},{"dx":2,"dy":1},{"dx":6,"dy":6},{"dx":0,"dy":1},{"dx":2,"dy":2},{"dx":3,"dy":5},{"dx":1,"dy":3},{"dx":4,"dy":6},{"dx":0,"dy":1},{"dx":3,"dy":9},{"dx":1,"dy":1},{"dx":0,"dy":2},{"dx":1,"dy":9},{"dx":0,"dy":1},{"dx":0,"dy":10},{"dx":1,"dy":10},{"dx":0,"dy":1},{"dx":0,"dy":1},{"dx":0,"dy":2},{"dx":0,"dy":9},{"dx":1,"dy":9},{"dx":0,"dy":2},{"dx":1,"dy":15},{"dx":0,"dy":9},{"dx":0,"dy":1},{"dx":0,"dy":8},{"dx":0,"dy":3},{"dx":-2,"dy":8},{"dx":-3,"dy":9},{"dx":0,"dy":1},{"dx":-3,"dy":7},{"dx":-3,"dy":11},{"dx":-1,"dy":1},{"dx":-2,"dy":9},{"dx":-1,"dy":2},{"dx":-1,"dy":7},{"dx":-1,"dy":3},{"dx":-4,"dy":8},{"dx":-1,"dy":1},{"dx":-1,"dy":2},{"dx":-3,"dy":3},{"dx":-4,"dy":6},{"dx":-2,"dy":0},{"dx":-3,"dy":3},{"dx":-5,"dy":6},{"dx":0,"dy":0},{"dx":-3,"dy":2},{"dx":-2,"dy":1},{"dx":-2,"dy":1},{"dx":-3,"dy":3},{"dx":-7,"dy":5},{"dx":0,"dy":0},{"dx":-9,"dy":5},{"dx":0,"dy":0},{"dx":-6,"dy":4},{"dx":-2,"dy":0},{"dx":-9,"dy":2},{"dx":-9,"dy":0},{"dx":-9,"dy":1},{"dx":0,"dy":0},{"dx":-7,"dy":0},{"dx":-8,"dy":-1},{"dx":-3,"dy":0},{"dx":-7,"dy":-3},{"dx":-9,"dy":-3},{"dx":-8,"dy":-2},{"dx":-1,"dy":-1},{"dx":-16,"dy":-8},{"dx":-2,"dy":-1},{"dx":-6,"dy":-5},{"dx":-5,"dy":-4},{"dx":-2,"dy":-2},{"dx":-2,"dy":-1},{"dx":-6,"dy":-5},{"dx":-1,"dy":-1},{"dx":-2,"dy":-1},{"dx":-4,"dy":-8},{"dx":-2,"dy":-1},{"dx":-2,"dy":-9},{"dx":-2,"dy":-3},{"dx":-2,"dy":-10},{"dx":-1,"dy":0},{"dx":-2,"dy":-11},{"dx":0,"dy":-1},{"dx":-1,"dy":-9},{"dx":-1,"dy":-10},{"dx":0,"dy":-1},{"dx":-1,"dy":-8},{"dx":-2,"dy":-12},{"dx":-3,"dy":-10},{"dx":0,"dy":-1},{"dx":-7,"dy":-15},{"dx":-2,"dy":-2},{"dx":-4,"dy":-10},{"dx":-5,"dy":-8},{"dx":-6,"dy":-14},{"dx":-3,"dy":-9},{"dx":-2,"dy":-1},{"dx":-5,"dy":-7},{"dx":0,"dy":-1},{"dx":-6,"dy":-8},{"dx":-1,"dy":-1},{"dx":-5,"dy":-6},{"dx":-8,"dy":-7},{"dx":-5,"dy":-5},{"dx":-1,"dy":-1},{"dx":-6,"dy":-5},{"dx":-3,"dy":-1},{"dx":-2,"dy":-1},{"dx":-4,"dy":-1},{"dx":-2,"dy":-1},{"dx":-2,"dy":-1},{"dx":-3,"dy":0},{"dx":-2,"dy":0},{"dx":-2,"dy":0},{"dx":-2,"dy":1},{"dx":-1,"dy":0},{"dx":-1,"dy":0},{"dx":-1,"dy":1},{"dx":-2,"dy":1},{"dx":-2,"dy":1},{"dx":-2,"dy":1},{"dx":-2,"dy":2},{"dx":-1,"dy":1},{"dx":-2,"dy":2},{"dx":-5,"dy":7},{"dx":-1,"dy":2},{"dx":-2,"dy":6},{"dx":-2,"dy":2},{"dx":-3,"dy":10},{"dx":0,"dy":0},{"dx":-3,"dy":9},{"dx":-1,"dy":1},{"dx":-2,"dy":9},{"dx":0,"dy":1},{"dx":-1,"dy":3},{"dx":-1,"dy":8},{"dx":0,"dy":2},{"dx":0,"dy":2},{"dx":-1,"dy":1},{"dx":-1,"dy":3},{"dx":0,"dy":3},{"dx":0,"dy":7},{"dx":0,"dy":1},{"dx":0,"dy":3},{"dx":0,"dy":8},{"dx":-1,"dy":2},{"dx":0,"dy":2},{"dx":0,"dy":2},{"dx":0,"dy":9},{"dx":0,"dy":2},{"dx":1,"dy":8},{"dx":1,"dy":3},{"dx":2,"dy":7},{"dx":0,"dy":2},{"dx":5,"dy":8},{"dx":0,"dy":1},{"dx":1,"dy":2},{"dx":6,"dy":6},{"dx":1,"dy":1},{"dx":1,"dy":1},{"dx":5,"dy":7},{"dx":5,"dy":6},{"dx":0,"dy":0},{"dx":2,"dy":4},{"dx":4,"dy":6},{"dx":2,"dy":1},{"dx":6,"dy":6},{"dx":5,"dy":7},{"dx":7,"dy":7},{"dx":6,"dy":6},{"dx":7,"dy":7},{"dx":6,"dy":4},{"dx":7,"dy":6},{"dx":7,"dy":5},{"dx":1,"dy":0},{"dx":1,"dy":1},{"dx":7,"dy":2},{"dx":10,"dy":2},{"dx":1,"dy":0},{"dx":8,"dy":0},{"dx":6,"dy":0},{"dx":2,"dy":0},{"dx":8,"dy":0},{"dx":7,"dy":-1},{"dx":7,"dy":-2},{"dx":9,"dy":-4},{"dx":7,"dy":-4},{"dx":8,"dy":-5},{"dx":12,"dy":-8},{"dx":1,"dy":-1},{"dx":7,"dy":-6},{"dx":5,"dy":-6},{"dx":2,"dy":-1},{"dx":4,"dy":-5},{"dx":6,"dy":-7},{"dx":7,"dy":-6},{"dx":6,"dy":-6},{"dx":6,"dy":-6},{"dx":7,"dy":-6},{"dx":6,"dy":-7},{"dx":5,"dy":-5},{"dx":6,"dy":-5},{"dx":1,"dy":-2},{"dx":6,"dy":-4},{"dx":5,"dy":-4},{"dx":10,"dy":-6},{"dx":16,"dy":-9},{"dx":10,"dy":-4},{"dx":12,"dy":-5},{"dx":15,"dy":-5},{"dx":10,"dy":-3},{"dx":12,"dy":-2},{"dx":18,"dy":-3},{"dx":7,"dy":-2},{"dx":1,"dy":0},{"dx":9,"dy":-1},{"dx":7,"dy":0},{"dx":1,"dy":0},{"dx":8,"dy":1},{"dx":6,"dy":2},{"dx":2,"dy":0},{"dx":6,"dy":4},{"dx":1,"dy":1},{"dx":2,"dy":1},{"dx":5,"dy":6},{"dx":1,"dy":1},{"dx":5,"dy":6},{"dx":1,"dy":2},{"dx":0,"dy":1},{"dx":1,"dy":1},{"dx":1,"dy":2},{"dx":1,"dy":1},{"dx":0,"dy":1},{"dx":1,"dy":2},{"dx":4,"dy":8},{"dx":3,"dy":7},{"dx":4,"dy":10},{"dx":2,"dy":9},{"dx":3,"dy":9},{"dx":6,"dy":10},{"dx":1,"dy":1},{"dx":5,"dy":7},{"dx":3,"dy":8},{"dx":0,"dy":0},{"dx":0,"dy":1},{"dx":0,"dy":4},{"dx":-1,"dy":9},{"dx":0,"dy":0},{"dx":-4,"dy":8},{"dx":-1,"dy":1},{"dx":0,"dy":1},{"dx":-4,"dy":8},{"dx":-1,"dy":2},{"dx":-4,"dy":6},{"dx":-1,"dy":1},{"dx":-1,"dy":3},{"dx":-3,"dy":6},{"dx":-2,"dy":1},{"dx":-3,"dy":7},{"dx":-2,"dy":1},{"dx":-4,"dy":8},{"dx":-1,"dy":1},{"dx":-4,"dy":7},{"dx":0,"dy":0},{"dx":-2,"dy":3},{"dx":-2,"dy":1},{"dx":-4,"dy":5},{"dx":-2,"dy":1},{"dx":-9,"dy":2},{"dx":-1,"dy":0},{"dx":-9,"dy":0},{"dx":-7,"dy":-1},{"dx":-1,"dy":0},{"dx":-16,"dy":-5},{"dx":-1,"dy":0},{"dx":-10,"dy":-4},{"dx":-8,"dy":-6},{"dx":-9,"dy":-4},{"dx":-1,"dy":-1},{"dx":-8,"dy":-3},{"dx":-8,"dy":-4},{"dx":-1,"dy":0},{"dx":-8,"dy":-5},{"dx":-1,"dy":-1},{"dx":-1,"dy":-2},{"dx":-6,"dy":-4},{"dx":-1,"dy":-2},{"dx":-1,"dy":-1},{"dx":-2,"dy":-3},{"dx":-3,"dy":-9},{"dx":-1,"dy":-1},{"dx":-3,"dy":-10},{"dx":0,"dy":-3},{"dx":-1,"dy":-6},{"dx":0,"dy":-4},{"dx":0,"dy":-8},{"dx":0,"dy":-4},{"dx":2,"dy":-10},{"dx":2,"dy":-9},{"dx":2,"dy":-10},{"dx":1,"dy":-1},{"dx":2,"dy":-10},{"dx":2,"dy":-8},{"dx":0,"dy":-3},{"dx":0,"dy":-2},{"dx":0,"dy":-9},{"dx":0,"dy":-2},{"dx":-2,"dy":-10},{"dx":-1,"dy":-2},{"dx":0,"dy":-2},{"dx":-3,"dy":-8},{"dx":-3,"dy":-11},{"dx":-4,"dy":-10},{"dx":-6,"dy":-8},{"dx":-3,"dy":-5},{"dx":-6,"dy":-7},{"dx":-6,"dy":-6},{"dx":-8,"dy":-6},{"dx":-1,"dy":-1},{"dx":-14,"dy":-10},{"dx":-4,"dy":-5},{"dx":-8,"dy":-6},{"dx":-6,"dy":-4},{"dx":-6,"dy":-4},{"dx":-9,"dy":-5},{"dx":-8,"dy":-5},{"dx":-1,"dy":0},{"dx":-9,"dy":-3},{"dx":-9,"dy":0},{"dx":-9,"dy":0},{"dx":-8,"dy":0},{"dx":-10,"dy":1},{"dx":-1,"dy":1},{"dx":-9,"dy":3},{"dx":-8,"dy":2},{"dx":-2,"dy":0},{"dx":-7,"dy":4},{"dx":-1,"dy":1},{"dx":-2,"dy":1},{"dx":-5,"dy":5},{"dx":-5,"dy":5},{"dx":-2,"dy":2},{"dx":-1,"dy":2},{"dx":-2,"dy":2},{"dx":-4,"dy":8},{"dx":0,"dy":0},{"dx":-4,"dy":8},{"dx":-4,"dy":6},{"dx":0,"dy":1},{"dx":-4,"dy":9},{"dx":-1,"dy":1},{"dx":-3,"dy":8},{"dx":0,"dy":1},{"dx":0,"dy":2},{"dx":0,"dy":2},{"dx":-1,"dy":3},{"dx":0,"dy":2},{"dx":0,"dy":2},{"dx":0,"dy":7},{"dx":0,"dy":3},{"dx":1,"dy":2},{"dx":0,"dy":3},{"dx":0,"dy":2},{"dx":1,"dy":1},{"dx":0,"dy":3},{"dx":5,"dy":7},{"dx":1,"dy":1},{"dx":6,"dy":7},{"dx":1,"dy":1},{"dx":1,"dy":1},{"dx":2,"dy":2},{"dx":5,"dy":4},{"dx":0,"dy":1},{"dx":6,"dy":4},{"dx":2,"dy":1},{"dx":6,"dy":5},{"dx":1,"dy":1},{"dx":8,"dy":4},{"dx":1,"dy":1},{"dx":1,"dy":0},{"dx":8,"dy":3}],"trial_type":"plugin-moving-dots-2","trial_index":6,"plugin_version":"0.0.1","time_elapsed":123498},{"task":"fixation","rt":3037,"stimulus":"<div style=\"font-size:60px;\">+</div>","response":" ","trial_type":"html-keyboard-response","trial_index":7,"plugin_version":"2.1.0","time_elapsed":126535},{"task":"movingdots","control_change":0,"mouse_data":[{"dx":0,"dy":0},{"dx":0,"dy":0},{"dx":0,"dy":0},{"dx":0,"dy":0},{"dx":0,"dy":0},{"dx":0,"dy":0},{"dx":0,"dy":0},{"dx":0,"dy":0},{"dx":0,"dy":0},{"dx":0,"dy":0},{"dx":0,"dy":0},{"dx":0,"dy":0},{"dx":0,"dy":0},{"dx":0,"dy":0},{"dx":0,"dy":0},{"dx":0,"dy":0},{"dx":0,"dy":0},{"dx":0,"dy":0},{"dx":0,"dy":0},{"dx":0,"dy":0},{"dx":0,"dy":0},{"dx":0,"dy":0},{"dx":0,"dy":0},{"dx":0,"dy":0},{"dx":0,"dy":0},{"dx":0,"dy":0},{"dx":0,"dy":0},{"dx":0,"dy":0},{"dx":0,"dy":0},{"dx":0,"dy":0},{"dx":0,"dy":0},{"dx":0,"dy":0},{"dx":0,"dy":0},{"dx":-6,"dy":0},{"dx":-1,"dy":0},{"dx":-2,"dy":0},{"dx":-3,"dy":-1},{"dx":-3,"dy":-1},{"dx":-2,"dy":-1},{"dx":-2,"dy":0},{"dx":-2,"dy":-1},{"dx":-2,"dy":-1},{"dx":-1,"dy":-1},{"dx":-3,"dy":-1},{"dx":-1,"dy":0},{"dx":-3,"dy":-2},{"dx":-8,"dy":-2},{"dx":-2,"dy":-2},{"dx":-7,"dy":-2},{"dx":-1,"dy":-1},{"dx":-6,"dy":-3},{"dx":-2,"dy":-1},{"dx":-8,"dy":-4},{"dx":-2,"dy":-1},{"dx":-6,"dy":-3},{"dx":-2,"dy":-2},{"dx":-3,"dy":-1},{"dx":-5,"dy":-3},{"dx":-1,"dy":-1},{"dx":-1,"dy":-2},{"dx":-1,"dy":-2},{"dx":-1,"dy":-3},{"dx":-2,"dy":-3},{"dx":-2,"dy":-10},{"dx":-1,"dy":-1},{"dx":0,"dy":-18},{"dx":0,"dy":-1},{"dx":0,"dy":-8},{"dx":0,"dy":-4},{"dx":2,"dy":-10},{"dx":0,"dy":-1},{"dx":3,"dy":-9},{"dx":0,"dy":-1},{"dx":1,"dy":-2},{"dx":4,"dy":-8},{"dx":1,"dy":-2},{"dx":1,"dy":-2},{"dx":6,"dy":-7},{"dx":0,"dy":0},{"dx":6,"dy":-5},{"dx":7,"dy":-5},{"dx":7,"dy":-5},{"dx":6,"dy":-3},{"dx":1,"dy":-2},{"dx":8,"dy":0},{"dx":1,"dy":-1},{"dx":9,"dy":-1},{"dx":1,"dy":0},{"dx":8,"dy":0},{"dx":10,"dy":0},{"dx":6,"dy":1},{"dx":9,"dy":1},{"dx":8,"dy":1},{"dx":2,"dy":0},{"dx":1,"dy":1},{"dx":3,"dy":1},{"dx":1,"dy":1},{"dx":2,"dy":1},{"dx":3,"dy":2},{"dx":7,"dy":4},{"dx":1,"dy":1},{"dx":7,"dy":3},{"dx":6,"dy":5},{"dx":0,"dy":0},{"dx":4,"dy":6},{"dx":1,"dy":2},{"dx":5,"dy":7},{"dx":0,"dy":1},{"dx":0,"dy":2},{"dx":0,"dy":1},{"dx":1,"dy":2},{"dx":0,"dy":2},{"dx":0,"dy":2},{"dx":1,"dy":9},{"dx":0,"dy":2},{"dx":0,"dy":2},{"dx":0,"dy":3},{"dx":0,"dy":9},{"dx":0,"dy":1},{"dx":0,"dy":2},{"dx":-1,"dy":3},{"dx":0,"dy":2},{"dx":-1,"dy":3},{"dx":0,"dy":2},{"dx":-1,"dy":2},{"dx":-3,"dy":9},{"dx":-1,"dy":2},{"dx":-1,"dy":8},{"dx":-2,"dy":1},{"dx":-2,"dy":6},{"dx":-2,"dy":2},{"dx":-4,"dy":9},{"dx":0,"dy":0},{"dx":-2,"dy":2},{"dx":-2,"dy":3},{"dx":-5,"dy":5},{"dx":-1,"dy":1},{"dx":-7,"dy":7},{"dx":-1,"dy":1},{"dx":-1,"dy":2},{"dx":-3,"dy":3},{"dx":-1,"dy":1},{"dx":-2,"dy":1},{"dx":-6,"dy":5},{"dx":-2,"dy":0},{"dx":-2,"dy":0},{"dx":-7,"dy":3},{"dx":-2,"dy":0},{"dx":-7,"dy":1},{"dx":-1,"dy":0},{"dx":-8,"dy":0},{"dx":-7,"dy":-1},{"dx":-9,"dy":-1},{"dx":-1,"dy":-1},{"dx":-8,"dy":0},{"dx":-1,"dy":0},{"dx":-9,"dy":-1},{"dx":-2,"dy":0},{"dx":-8,"dy":0},{"dx":-1,"dy":0},{"dx":-3,"dy":1},{"dx":-7,"dy":4},{"dx":-1,"dy":1},{"dx":-6,"dy":4},{"dx":-2,"dy":1},{"dx":-1,"dy":2},{"dx":-4,"dy":4},{"dx":-1,"dy":1},{"dx":-2,"dy":3},{"dx":-1,"dy":2},{"dx":-3,"dy":8},{"dx":-3,"dy":8},{"dx":-1,"dy":8},{"dx":0,"dy":2},{"dx":-2,"dy":10},{"dx":0,"dy":10},{"dx":0,"dy":9},{"dx":1,"dy":8},{"dx":1,"dy":2},{"dx":2,"dy":10},{"dx":2,"dy":10},{"dx":1,"dy":2},{"dx":4,"dy":8},{"dx":0,"dy":0},{"dx":1,"dy":1},{"dx":1,"dy":1},{"dx":2,"dy":2},{"dx":1,"dy":1},{"dx":1,"dy":1},{"dx":7,"dy":3},{"dx":1,"dy":0},{"dx":8,"dy":2},{"dx":8,"dy":0},{"dx":1,"dy":0},{"dx":7,"dy":0},{"dx":7,"dy":0},{"dx":1,"dy":0},{"dx":1,"dy":0},{"dx":2,"dy":0},{"dx":1,"dy":0},{"dx":2,"dy":-1},{"dx":8,"dy":-1},{"dx":6,"dy":-2},{"dx":7,"dy":-1},{"dx":2,"dy":-1},{"dx":6,"dy":-3},{"dx":9,"dy":-2},{"dx":8,"dy":-4},{"dx":11,"dy":-7},{"dx":1,"dy":-2},{"dx":6,"dy":-5},{"dx":2,"dy":-3},{"dx":1,"dy":-2},{"dx":2,"dy":-2},{"dx":5,"dy":-8},{"dx":1,"dy":-1},{"dx":1,"dy":-2},{"dx":4,"dy":-7},{"dx":0,"dy":-1},{"dx":4,"dy":-9},{"dx":4,"dy":-11},{"dx":0,"dy":-2},{"dx":3,"dy":-12},{"dx":1,"dy":-9},{"dx":0,"dy":-3},{"dx":0,"dy":-9},{"dx":0,"dy":-1},{"dx":0,"dy":-2},{"dx":0,"dy":-2},{"dx":-1,"dy":-3},{"dx":-1,"dy":-2},{"dx":-7,"dy":-7},{"dx":-1,"dy":0},{"dx":-7,"dy":-5},{"dx":-2,"dy":0},{"dx":-7,"dy":-3},{"dx":-2,"dy":-2},{"dx":-7,"dy":-2},{"dx":-7,"dy":-3},{"dx":-2,"dy":0},{"dx":-3,"dy":-2},{"dx":-3,"dy":0},{"dx":-7,"dy":-2},{"dx":-4,"dy":0},{"dx":-5,"dy":-2},{"dx":-2,"dy":-1},{"dx":-8,"dy":-2},{"dx":-2,"dy":0},{"dx":-1,"dy":-1},{"dx":-2,"dy":0},{"dx":-3,"dy":0},{"dx":-2,"dy":0},{"dx":-2,"dy":0},{"dx":-9,"dy":0},{"dx":-1,"dy":0},{"dx":-2,"dy":0},{"dx":-9,"dy":1},{"dx":0,"dy":0},{"dx":-3,"dy":0},{"dx":-7,"dy":0},{"dx":-2,"dy":0},{"dx":-9,"dy":-1},{"dx":-2,"dy":-1},{"dx":-7,"dy":-4},{"dx":-1,"dy":0},{"dx":-7,"dy":-5},{"dx":-5,"dy":-6},{"dx":-8,"dy":-5},{"dx":-7,"dy":-7},{"dx":-7,"dy":-5},{"dx":0,"dy":-1},{"dx":-6,"dy":-7},{"dx":0,"dy":-1},{"dx":-3,"dy":-10},{"dx":-2,"dy":-11},{"dx":-1,"dy":-8},{"dx":-1,"dy":-10},{"dx":-2,"dy":-10},{"dx":-1,"dy":-2},{"dx":0,"dy":-8},{"dx":-1,"dy":-10},{"dx":0,"dy":-11},{"dx":0,"dy":-2},{"dx":0,"dy":-10},{"dx":0,"dy":-9},{"dx":0,"dy":-9},{"dx":3,"dy":-10},{"dx":4,"dy":-10},{"dx":0,"dy":-1},{"dx":4,"dy":-8},{"dx":0,"dy":-2},{"dx":1,"dy":-2},{"dx":5,"dy":-8},{"dx":7,"dy":-6},{"dx":7,"dy":-7},{"dx":11,"dy":-7},{"dx":1,"dy":-1},{"dx":8,"dy":-3},{"dx":9,"dy":-4},{"dx":8,"dy":-4},{"dx":8,"dy":-4},{"dx":7,"dy":-4},{"dx":8,"dy":-3},{"dx":8,"dy":-3},{"dx":15,"dy":-4},{"dx":9,"dy":-2},{"dx":6,"dy":-2},{"dx":8,"dy":-3},{"dx":10,"dy":-2},{"dx":13,"dy":-4},{"dx":16,"dy":-3},{"dx":8,"dy":-1},{"dx":1,"dy":0},{"dx":15,"dy":2},{"dx":8,"dy":4},{"dx":8,"dy":4},{"dx":8,"dy":3},{"dx":6,"dy":3},{"dx":7,"dy":3},{"dx":7,"dy":5},{"dx":1,"dy":1},{"dx":5,"dy":4},{"dx":1,"dy":2},{"dx":2,"dy":2},{"dx":4,"dy":6},{"dx":0,"dy":0},{"dx":1,"dy":2},{"dx":1,"dy":1},{"dx":0,"dy":2},{"dx":1,"dy":2},{"dx":0,"dy":2},{"dx":1,"dy":2},{"dx":2,"dy":11},{"dx":0,"dy":1},{"dx":0,"dy":2},{"dx":0,"dy":10},{"dx":-2,"dy":6},{"dx":-1,"dy":1},{"dx":-4,"dy":11},{"dx":-2,"dy":8},{"dx":-3,"dy":8},{"dx":-4,"dy":7},{"dx":-1,"dy":2},{"dx":-5,"dy":10},{"dx":-4,"dy":8},{"dx":-3,"dy":10},{"dx":-5,"dy":7},{"dx":-4,"dy":11},{"dx":-5,"dy":8},{"dx":-5,"dy":8},{"dx":-9,"dy":15},{"dx":-1,"dy":2},{"dx":-4,"dy":8},{"dx":-3,"dy":10},{"dx":-4,"dy":8},{"dx":-1,"dy":1},{"dx":-3,"dy":8},{"dx":-1,"dy":2},{"dx":-3,"dy":10},{"dx":0,"dy":1},{"dx":-3,"dy":9},{"dx":0,"dy":1},{"dx":-1,"dy":3},{"dx":-2,"dy":7},{"dx":-1,"dy":2},{"dx":-1,"dy":11},{"dx":0,"dy":0},{"dx":0,"dy":11},{"dx":0,"dy":3},{"dx":1,"dy":7},{"dx":1,"dy":1},{"dx":4,"dy":8},{"dx":1,"dy":1},{"dx":0,"dy":2},{"dx":2,"dy":2},{"dx":1,"dy":1},{"dx":1,"dy":2},{"dx":3,"dy":2},{"dx":1,"dy":2},{"dx":1,"dy":1},{"dx":1,"dy":1},{"dx":2,"dy":1},{"dx":1,"dy":0},{"dx":2,"dy":2},{"dx":8,"dy":2},{"dx":1,"dy":0},{"dx":8,"dy":2},{"dx":9,"dy":3},{"dx":1,"dy":0},{"dx":9,"dy":1},{"dx":7,"dy":1},{"dx":1,"dy":0},{"dx":8,"dy":2},{"dx":1,"dy":0},{"dx":8,"dy":1},{"dx":0,"dy":0},{"dx":2,"dy":0},{"dx":1,"dy":0},{"dx":2,"dy":0},{"dx":1,"dy":0},{"dx":1,"dy":0},{"dx":2,"dy":-2},{"dx":8,"dy":-3},{"dx":1,"dy":0},{"dx":8,"dy":-4},{"dx":1,"dy":-2},{"dx":7,"dy":-2},{"dx":6,"dy":-4},{"dx":1,"dy":0},{"dx":7,"dy":-4},{"dx":1,"dy":-1},{"dx":6,"dy":-4},{"dx":0,"dy":0},{"dx":1,"dy":-2},{"dx":1,"dy":-3},{"dx":2,"dy":-8},{"dx":1,"dy":-1},{"dx":5,"dy":-7},{"dx":0,"dy":-2},{"dx":3,"dy":-6},{"dx":3,"dy":-8},{"dx":1,"dy":-2},{"dx":0,"dy":-2},{"dx":2,"dy":-9},{"dx":0,"dy":-8},{"dx":0,"dy":-11},{"dx":0,"dy":-11},{"dx":0,"dy":-1},{"dx":-2,"dy":-9},{"dx":-3,"dy":-9},{"dx":0,"dy":-1},{"dx":-2,"dy":-7},{"dx":-3,"dy":-9},{"dx":-4,"dy":-8},{"dx":-1,"dy":-2},{"dx":-3,"dy":-8},{"dx":-4,"dy":-8},{"dx":-1,"dy":-2},{"dx":-6,"dy":-7},{"dx":-7,"dy":-3},{"dx":-8,"dy":-5},{"dx":-8,"dy":-6},{"dx":-8,"dy":-3},{"dx":-7,"dy":-3},{"dx":-16,"dy":-4},{"dx":-9,"dy":-2},{"dx":-1,"dy":0},{"dx":-15,"dy":-2},{"dx":-7,"dy":0},{"dx":-2,"dy":0},{"dx":-9,"dy":2},{"dx":-6,"dy":2},{"dx":-2,"dy":1}],"trial_type":"plugin-moving-dots-2","trial_index":8,"plugin_version":"0.0.1","time_elapsed":134048},{"task":"fixation","rt":1157,"stimulus":"<div style=\"font-size:60px;\">+</div>","response":" ","trial_type":"html-keyboard-response","trial_index":9,"plugin_version":"2.1.0","time_elapsed":135207},{"task":"movingdots","control_change":0,"mouse_data":[{"dx":0,"dy":0},{"dx":0,"dy":0},{"dx":0,"dy":0},{"dx":0,"dy":0},{"dx":0,"dy":0},{"dx":0,"dy":0},{"dx":0,"dy":0},{"dx":0,"dy":0},{"dx":0,"dy":0},{"dx":0,"dy":0},{"dx":0,"dy":0},{"dx":0,"dy":0},{"dx":0,"dy":0},{"dx":0,"dy":0},{"dx":0,"dy":0},{"dx":0,"dy":0},{"dx":0,"dy":0},{"dx":0,"dy":0},{"dx":0,"dy":0},{"dx":0,"dy":0},{"dx":0,"dy":0},{"dx":0,"dy":0},{"dx":0,"dy":0},{"dx":0,"dy":0},{"dx":0,"dy":0},{"dx":0,"dy":0},{"dx":0,"dy":0},{"dx":0,"dy":0},{"dx":0,"dy":0},{"dx":0,"dy":0},{"dx":0,"dy":0},{"dx":0,"dy":0},{"dx":0,"dy":0},{"dx":0,"dy":0},{"dx":0,"dy":0},{"dx":0,"dy":0},{"dx":0,"dy":0},{"dx":0,"dy":0},{"dx":0,"dy":0},{"dx":0,"dy":0},{"dx":0,"dy":0},{"dx":0,"dy":0},{"dx":-1,"dy":0},{"dx":-2,"dy":1},{"dx":-2,"dy":1},{"dx":-3,"dy":1},{"dx":-1,"dy":1},{"dx":-1,"dy":1},{"dx":-2,"dy":0},{"dx":-3,"dy":2},{"dx":-3,"dy":0},{"dx":-8,"dy":4},{"dx":-1,"dy":0},{"dx":-7,"dy":3},{"dx":0,"dy":0},{"dx":-4,"dy":0},{"dx":-3,"dy":1},{"dx":-1,"dy":1},{"dx":-3,"dy":0},{"dx":-2,"dy":1},{"dx":-1,"dy":0},{"dx":-3,"dy":0},{"dx":-6,"dy":3},{"dx":-2,"dy":0},{"dx":-8,"dy":2},{"dx":-9,"dy":2},{"dx":-1,"dy":0},{"dx":-15,"dy":2},{"dx":-1,"dy":0},{"dx":-8,"dy":0},{"dx":-15,"dy":0},{"dx":-8,"dy":0},{"dx":-8,"dy":0},{"dx":-9,"dy":-2},{"dx":-10,"dy":-1},{"dx":-2,"dy":-1},{"dx":-9,"dy":-2},{"dx":-7,"dy":-3},{"dx":-9,"dy":-4},{"dx":-9,"dy":-5},{"dx":0,"dy":0},{"dx":-7,"dy":-4},{"dx":-6,"dy":-5},{"dx":-6,"dy":-3},{"dx":-7,"dy":-7},{"dx":-7,"dy":-9},{"dx":-5,"dy":-7},{"dx":-4,"dy":-9},{"dx":-4,"dy":-8},{"dx":-3,"dy":-7},{"dx":-1,"dy":-2},{"dx":-4,"dy":-8},{"dx":-3,"dy":-11},{"dx":-2,"dy":-8},{"dx":-4,"dy":-12},{"dx":-2,"dy":-9},{"dx":-2,"dy":-11},{"dx":-2,"dy":-11},{"dx":-2,"dy":-8},{"dx":-1,"dy":-2},{"dx":-3,"dy":-19},{"dx":-2,"dy":-9},{"dx":-1,"dy":-9},{"dx":-2,"dy":-11},{"dx":-1,"dy":-11},{"dx":-1,"dy":-8},{"dx":-2,"dy":-18},{"dx":-2,"dy":-9},{"dx":-2,"dy":-11},{"dx":-2,"dy":-10},{"dx":-2,"dy":-10},{"dx":-2,"dy":-12},{"dx":-3,"dy":-13},{"dx":-1,"dy":-9},{"dx":-1,"dy":-3},{"dx":0,"dy":-11},{"dx":-1,"dy":-7},{"dx":-1,"dy":-10},{"dx":-1,"dy":-9},{"dx":0,"dy":-1},{"dx":-2,"dy":-3},{"dx":-2,"dy":-2},{"dx":-1,"dy":-2},{"dx":-7,"dy":-5},{"dx":-2,"dy":-1},{"dx":-8,"dy":-1},{"dx":-1,"dy":0},{"dx":-9,"dy":-1},{"dx":-2,"dy":0},{"dx":-8,"dy":0},{"dx":-2,"dy":0},{"dx":-6,"dy":1},{"dx":-8,"dy":3},{"dx":-10,"dy":6},{"dx":-10,"dy":3},{"dx":-6,"dy":4},{"dx":-8,"dy":4},{"dx":-7,"dy":4},{"dx":-7,"dy":4},{"dx":-7,"dy":6},{"dx":-7,"dy":6},{"dx":-7,"dy":5},{"dx":-7,"dy":7},{"dx":0,"dy":1},{"dx":-6,"dy":7},{"dx":-5,"dy":9},{"dx":-5,"dy":7},{"dx":-4,"dy":7},{"dx":-3,"dy":6},{"dx":-5,"dy":11},{"dx":-4,"dy":10},{"dx":0,"dy":1},{"dx":-3,"dy":9},{"dx":-2,"dy":9},{"dx":-2,"dy":10},{"dx":0,"dy":2},{"dx":-1,"dy":7},{"dx":0,"dy":10},{"dx":0,"dy":10},{"dx":-2,"dy":1},{"dx":0,"dy":9},{"dx":0,"dy":11},{"dx":2,"dy":12},{"dx":2,"dy":11},{"dx":1,"dy":8},{"dx":2,"dy":10},{"dx":0,"dy":11},{"dx":2,"dy":17},{"dx":3,"dy":10},{"dx":3,"dy":8},{"dx":2,"dy":10},{"dx":3,"dy":11},{"dx":1,"dy":10},{"dx":3,"dy":10},{"dx":2,"dy":6},{"dx":5,"dy":11},{"dx":4,"dy":8},{"dx":3,"dy":9},{"dx":2,"dy":8},{"dx":8,"dy":17},{"dx":0,"dy":1},{"dx":5,"dy":8},{"dx":5,"dy":8},{"dx":1,"dy":2},{"dx":3,"dy":5},{"dx":1,"dy":3},{"dx":2,"dy":1},{"dx":1,"dy":2},{"dx":2,"dy":3},{"dx":4,"dy":6},{"dx":1,"dy":1},{"dx":5,"dy":7},{"dx":6,"dy":7},{"dx":1,"dy":2},{"dx":6,"dy":6},{"dx":2,"dy":1},{"dx":5,"dy":4},{"dx":2,"dy":0},{"dx":1,"dy":1},{"dx":6,"dy":4},{"dx":1,"dy":0},{"dx":1,"dy":0},{"dx":2,"dy":1},{"dx":2,"dy":1},{"dx":2,"dy":1},{"dx":1,"dy":1},{"dx":1,"dy":0},{"dx":2,"dy":1},{"dx":2,"dy":1},{"dx":1,"dy":0},{"dx":8,"dy":3},{"dx":0,"dy":0},{"dx":2,"dy":1},{"dx":8,"dy":2},{"dx":2,"dy":1},{"dx":7,"dy":2},{"dx":9,"dy":1},{"dx":1,"dy":0},{"dx":7,"dy":1},{"dx":1,"dy":0},{"dx":8,"dy":0},{"dx":1,"dy":0},{"dx":8,"dy":0},{"dx":7,"dy":-1},{"dx":7,"dy":0},{"dx":8,"dy":0},{"dx":1,"dy":0},{"dx":8,"dy":0},{"dx":8,"dy":0},{"dx":8,"dy":0},{"dx":1,"dy":0},{"dx":8,"dy":0},{"dx":7,"dy":-2},{"dx":9,"dy":-2},{"dx":9,"dy":-1},{"dx":8,"dy":-1},{"dx":8,"dy":-1},{"dx":9,"dy":-1},{"dx":6,"dy":-2},{"dx":8,"dy":-2},{"dx":16,"dy":-2},{"dx":10,"dy":-3},{"dx":9,"dy":-1},{"dx":11,"dy":-3},{"dx":9,"dy":-3},{"dx":9,"dy":-1},{"dx":20,"dy":-5},{"dx":10,"dy":-3},{"dx":8,"dy":-2},{"dx":7,"dy":-2},{"dx":8,"dy":-2},{"dx":7,"dy":-2},{"dx":15,"dy":-2},{"dx":1,"dy":-1},{"dx":9,"dy":-1},{"dx":7,"dy":-1},{"dx":11,"dy":-3},{"dx":1,"dy":0},{"dx":17,"dy":-3},{"dx":9,"dy":-2},{"dx":11,"dy":0},{"dx":9,"dy":-2},{"dx":8,"dy":-2},{"dx":8,"dy":0},{"dx":18,"dy":-4},{"dx":11,"dy":-2},{"dx":11,"dy":-2},{"dx":11,"dy":-3},{"dx":10,"dy":-4},{"dx":14,"dy":-5},{"dx":30,"dy":-14},{"dx":18,"dy":-10},{"dx":17,"dy":-11},{"dx":18,"dy":-12},{"dx":10,"dy":-9},{"dx":6,"dy":-5},{"dx":17,"dy":-17},{"dx":7,"dy":-10},{"dx":9,"dy":-10},{"dx":6,"dy":-10},{"dx":6,"dy":-8},{"dx":5,"dy":-11},{"dx":0,"dy":-1},{"dx":0,"dy":-10},{"dx":0,"dy":-2},{"dx":-2,"dy":-8},{"dx":-4,"dy":-9},{"dx":-4,"dy":-9},{"dx":-2,"dy":-2},{"dx":-14,"dy":-14},{"dx":-10,"dy":-7},{"dx":-9,"dy":-5},{"dx":-8,"dy":-4},{"dx":-9,"dy":-4},{"dx":-10,"dy":-5},{"dx":-22,"dy":-7},{"dx":-10,"dy":-2},{"dx":-15,"dy":-3},{"dx":-25,"dy":-4},{"dx":-15,"dy":-2},{"dx":-19,"dy":-1},{"dx":-30,"dy":0},{"dx":-21,"dy":0},{"dx":-23,"dy":2},{"dx":-32,"dy":2},{"dx":-24,"dy":2},{"dx":-22,"dy":3},{"dx":-38,"dy":6},{"dx":-24,"dy":6},{"dx":-24,"dy":4},{"dx":-38,"dy":7},{"dx":-22,"dy":5},{"dx":-19,"dy":6},{"dx":-26,"dy":9},{"dx":-17,"dy":6},{"dx":-7,"dy":5},{"dx":-20,"dy":11},{"dx":-11,"dy":6},{"dx":-8,"dy":6},{"dx":-8,"dy":6},{"dx":-7,"dy":5},{"dx":-7,"dy":8},{"dx":-5,"dy":7},{"dx":-3,"dy":9},{"dx":-3,"dy":10},{"dx":0,"dy":11},{"dx":0,"dy":7},{"dx":1,"dy":9},{"dx":5,"dy":17},{"dx":3,"dy":6},{"dx":4,"dy":8},{"dx":5,"dy":9},{"dx":7,"dy":10},{"dx":7,"dy":8},{"dx":14,"dy":15},{"dx":6,"dy":6},{"dx":7,"dy":6},{"dx":7,"dy":5},{"dx":5,"dy":4},{"dx":6,"dy":5},{"dx":13,"dy":7},{"dx":9,"dy":2},{"dx":8,"dy":3},{"dx":9,"dy":2},{"dx":8,"dy":2},{"dx":8,"dy":3},{"dx":13,"dy":4},{"dx":8,"dy":2},{"dx":8,"dy":1},{"dx":7,"dy":1},{"dx":7,"dy":0},{"dx":6,"dy":0},{"dx":11,"dy":-1},{"dx":9,"dy":-3},{"dx":7,"dy":-2},{"dx":8,"dy":-3},{"dx":9,"dy":-2},{"dx":6,"dy":-3},{"dx":6,"dy":-4},{"dx":7,"dy":-4},{"dx":7,"dy":-4},{"dx":8,"dy":-3},{"dx":0,"dy":-1},{"dx":8,"dy":-4},{"dx":9,"dy":-3},{"dx":7,"dy":-3},{"dx":6,"dy":-3},{"dx":9,"dy":-6},{"dx":5,"dy":-5},{"dx":1,"dy":-1},{"dx":5,"dy":-5},{"dx":5,"dy":-6},{"dx":8,"dy":-7},{"dx":5,"dy":-5},{"dx":10,"dy":-10},{"dx":7,"dy":-4},{"dx":7,"dy":-4},{"dx":8,"dy":-2},{"dx":0,"dy":-1},{"dx":6,"dy":-1},{"dx":9,"dy":-1},{"dx":1,"dy":0},{"dx":8,"dy":0},{"dx":2,"dy":0},{"dx":7,"dy":0},{"dx":2,"dy":0},{"dx":8,"dy":2},{"dx":8,"dy":2},{"dx":7,"dy":3},{"dx":10,"dy":4},{"dx":8,"dy":3},{"dx":1,"dy":0},{"dx":10,"dy":4},{"dx":8,"dy":4},{"dx":7,"dy":4},{"dx":6,"dy":4},{"dx":7,"dy":3},{"dx":1,"dy":0},{"dx":9,"dy":4},{"dx":6,"dy":2},{"dx":7,"dy":2},{"dx":2,"dy":0},{"dx":7,"dy":0},{"dx":2,"dy":0},{"dx":7,"dy":-1},{"dx":6,"dy":-4},{"dx":1,"dy":-1},{"dx":4,"dy":-4},{"dx":1,"dy":-2},{"dx":5,"dy":-8},{"dx":0,"dy":-3},{"dx":2,"dy":-9},{"dx":1,"dy":-2},{"dx":3,"dy":-16},{"dx":1,"dy":-10},{"dx":0,"dy":-12},{"dx":0,"dy":-12},{"dx":0,"dy":-11},{"dx":-1,"dy":-8},{"dx":-5,"dy":-11},{"dx":-4,"dy":-6},{"dx":-4,"dy":-7},{"dx":-2,"dy":-1},{"dx":-6,"dy":-5},{"dx":-2,"dy":-1},{"dx":-7,"dy":-5},{"dx":-8,"dy":-2},{"dx":-1,"dy":-1},{"dx":-8,"dy":-1},{"dx":-11,"dy":0},{"dx":-7,"dy":0},{"dx":-7,"dy":0},{"dx":-6,"dy":1},{"dx":-7,"dy":1},{"dx":-14,"dy":3},{"dx":-8,"dy":1},{"dx":-8,"dy":2},{"dx":-9,"dy":2},{"dx":-7,"dy":1},{"dx":-8,"dy":2},{"dx":-7,"dy":3},{"dx":-7,"dy":4},{"dx":-2,"dy":1},{"dx":-6,"dy":3},{"dx":-2,"dy":1},{"dx":-6,"dy":6},{"dx":-5,"dy":4},{"dx":-7,"dy":6},{"dx":-6,"dy":8},{"dx":-8,"dy":8},{"dx":-5,"dy":4},{"dx":-5,"dy":5},{"dx":-11,"dy":12}],"trial_type":"plugin-moving-dots-2","trial_index":10,"plugin_version":"0.0.1","time_elapsed":142714},{"task":"fixation","rt":732,"stimulus":"<div style=\"font-size:60px;\">+</div>","response":" ","trial_type":"html-keyboard-response","trial_index":11,"plugin_version":"2.1.0","time_elapsed":143448},{"task":"movingdots","control_change":0,"mouse_data":[{"dx":0,"dy":0},{"dx":0,"dy":0},{"dx":0,"dy":0},{"dx":0,"dy":0},{"dx":0,"dy":0},{"dx":0,"dy":0},{"dx":0,"dy":0},{"dx":0,"dy":0},{"dx":0,"dy":0},{"dx":0,"dy":0},{"dx":0,"dy":0},{"dx":0,"dy":0},{"dx":0,"dy":0},{"dx":0,"dy":0},{"dx":0,"dy":0},{"dx":0,"dy":0},{"dx":0,"dy":0},{"dx":0,"dy":0},{"dx":0,"dy":0},{"dx":0,"dy":0},{"dx":0,"dy":0},{"dx":0,"dy":0},{"dx":0,"dy":0},{"dx":0,"dy":0},{"dx":0,"dy":0},{"dx":0,"dy":0},{"dx":-7,"dy":-2},{"dx":-9,"dy":-4},{"dx":-10,"dy":-2},{"dx":-2,"dy":-1},{"dx":-16,"dy":-3},{"dx":-2,"dy":0},{"dx":-7,"dy":-2},{"dx":-9,"dy":-2},{"dx":-1,"dy":0},{"dx":-8,"dy":-2},{"dx":-2,"dy":-1},{"dx":-9,"dy":-2},{"dx":-7,"dy":-2},{"dx":-2,"dy":-1},{"dx":-6,"dy":-2},{"dx":-1,"dy":-1},{"dx":-7,"dy":-2},{"dx":-10,"dy":-4},{"dx":-2,"dy":0},{"dx":-7,"dy":-5},{"dx":-4,"dy":-3},{"dx":-5,"dy":-6},{"dx":-2,"dy":-2},{"dx":-5,"dy":-6},{"dx":-1,"dy":-1},{"dx":-1,"dy":-3},{"dx":-3,"dy":-10},{"dx":0,"dy":-2},{"dx":-1,"dy":-9},{"dx":0,"dy":-3},{"dx":0,"dy":-2},{"dx":0,"dy":-3},{"dx":0,"dy":-3},{"dx":0,"dy":-1},{"dx":3,"dy":-9},{"dx":5,"dy":-6},{"dx":0,"dy":-2},{"dx":7,"dy":-6},{"dx":1,"dy":-1},{"dx":1,"dy":-1},{"dx":2,"dy":-2},{"dx":2,"dy":-1},{"dx":1,"dy":-1},{"dx":1,"dy":-1},{"dx":9,"dy":-1},{"dx":0,"dy":0},{"dx":9,"dy":0},{"dx":7,"dy":0},{"dx":8,"dy":2},{"dx":7,"dy":1},{"dx":12,"dy":2},{"dx":9,"dy":2},{"dx":8,"dy":2},{"dx":17,"dy":5},{"dx":6,"dy":3},{"dx":7,"dy":4},{"dx":9,"dy":4},{"dx":8,"dy":4},{"dx":5,"dy":4},{"dx":12,"dy":8},{"dx":7,"dy":6},{"dx":8,"dy":4},{"dx":9,"dy":6},{"dx":9,"dy":5},{"dx":8,"dy":4},{"dx":13,"dy":7},{"dx":5,"dy":3},{"dx":8,"dy":3},{"dx":7,"dy":3},{"dx":8,"dy":4},{"dx":7,"dy":3},{"dx":8,"dy":4},{"dx":7,"dy":2},{"dx":1,"dy":0},{"dx":7,"dy":3},{"dx":6,"dy":1},{"dx":6,"dy":2},{"dx":2,"dy":1},{"dx":8,"dy":1},{"dx":7,"dy":0},{"dx":10,"dy":1},{"dx":8,"dy":0},{"dx":8,"dy":0},{"dx":12,"dy":-2},{"dx":8,"dy":-2},{"dx":2,"dy":0},{"dx":9,"dy":-4},{"dx":7,"dy":-3},{"dx":1,"dy":-1},{"dx":6,"dy":-6},{"dx":2,"dy":-7},{"dx":2,"dy":-11},{"dx":1,"dy":-12},{"dx":0,"dy":-11},{"dx":0,"dy":-8},{"dx":0,"dy":-10},{"dx":-1,"dy":-2},{"dx":-1,"dy":-3},{"dx":-1,"dy":-4},{"dx":-1,"dy":-2},{"dx":-4,"dy":-7},{"dx":-1,"dy":-1},{"dx":-8,"dy":-8},{"dx":-1,"dy":0},{"dx":-13,"dy":-7},{"dx":-8,"dy":-2},{"dx":-8,"dy":-2},{"dx":-2,"dy":0},{"dx":-9,"dy":0},{"dx":-1,"dy":0},{"dx":-3,"dy":0},{"dx":-2,"dy":0},{"dx":-3,"dy":0},{"dx":-6,"dy":4},{"dx":-2,"dy":1},{"dx":-1,"dy":2},{"dx":-2,"dy":1},{"dx":-3,"dy":2},{"dx":-1,"dy":2},{"dx":-2,"dy":3},{"dx":-1,"dy":1},{"dx":0,"dy":1},{"dx":-1,"dy":3},{"dx":-1,"dy":2},{"dx":0,"dy":2},{"dx":0,"dy":3},{"dx":-1,"dy":3},{"dx":0,"dy":2},{"dx":-1,"dy":4},{"dx":0,"dy":1},{"dx":0,"dy":2},{"dx":-1,"dy":3},{"dx":-1,"dy":2},{"dx":0,"dy":2},{"dx":-1,"dy":3},{"dx":-1,"dy":2},{"dx":-1,"dy":3},{"dx":0,"dy":1},{"dx":-1,"dy":2},{"dx":0,"dy":1},{"dx":-1,"dy":2},{"dx":-2,"dy":2},{"dx":-1,"dy":2},{"dx":-1,"dy":1},{"dx":-2,"dy":2},{"dx":-6,"dy":6},{"dx":0,"dy":0},{"dx":-2,"dy":1},{"dx":-3,"dy":1},{"dx":-7,"dy":2},{"dx":-8,"dy":2},{"dx":-2,"dy":0},{"dx":-7,"dy":1},{"dx":-6,"dy":0},{"dx":-7,"dy":0},{"dx":-2,"dy":0},{"dx":-7,"dy":-2},{"dx":-8,"dy":-1},{"dx":-7,"dy":-5},{"dx":-10,"dy":-5},{"dx":-9,"dy":-4},{"dx":0,"dy":-1},{"dx":-7,"dy":-5},{"dx":-5,"dy":-3},{"dx":-2,"dy":-2},{"dx":-5,"dy":-5},{"dx":-6,"dy":-5},{"dx":0,"dy":-1},{"dx":-4,"dy":-3},{"dx":-6,"dy":-6},{"dx":0,"dy":0},{"dx":-6,"dy":-10},{"dx":0,"dy":-2},{"dx":-3,"dy":-8},{"dx":0,"dy":-3},{"dx":0,"dy":-2},{"dx":0,"dy":-2},{"dx":0,"dy":-1},{"dx":0,"dy":-1},{"dx":1,"dy":-2},{"dx":6,"dy":-5},{"dx":1,"dy":-1},{"dx":1,"dy":-1},{"dx":8,"dy":-4},{"dx":2,"dy":0},{"dx":1,"dy":-1},{"dx":6,"dy":-1},{"dx":2,"dy":0},{"dx":2,"dy":0},{"dx":8,"dy":0},{"dx":8,"dy":0},{"dx":1,"dy":0},{"dx":9,"dy":4},{"dx":7,"dy":3},{"dx":1,"dy":0},{"dx":8,"dy":5},{"dx":7,"dy":4},{"dx":7,"dy":6},{"dx":0,"dy":0},{"dx":5,"dy":6},{"dx":1,"dy":1},{"dx":1,"dy":2},{"dx":6,"dy":6},{"dx":0,"dy":0},{"dx":2,"dy":2},{"dx":5,"dy":6},{"dx":1,"dy":1},{"dx":12,"dy":10},{"dx":5,"dy":8},{"dx":6,"dy":6},{"dx":7,"dy":6},{"dx":8,"dy":5},{"dx":8,"dy":7},{"dx":7,"dy":4},{"dx":16,"dy":10},{"dx":9,"dy":5},{"dx":7,"dy":3},{"dx":9,"dy":3},{"dx":8,"dy":1},{"dx":9,"dy":1},{"dx":2,"dy":0},{"dx":1,"dy":0},{"dx":2,"dy":0},{"dx":3,"dy":0},{"dx":2,"dy":-1},{"dx":2,"dy":-1},{"dx":6,"dy":-3},{"dx":2,"dy":-1},{"dx":7,"dy":-5},{"dx":5,"dy":-7},{"dx":1,"dy":-2},{"dx":4,"dy":-6},{"dx":6,"dy":-8},{"dx":0,"dy":-2},{"dx":1,"dy":-1},{"dx":4,"dy":-8},{"dx":0,"dy":-3},{"dx":1,"dy":-3},{"dx":2,"dy":-8},{"dx":0,"dy":-2},{"dx":0,"dy":-3},{"dx":0,"dy":-3},{"dx":0,"dy":-1},{"dx":0,"dy":0},{"dx":0,"dy":-2},{"dx":0,"dy":-2},{"dx":0,"dy":-2},{"dx":-2,"dy":-3},{"dx":-1,"dy":-2},{"dx":-1,"dy":-1},{"dx":-7,"dy":-6},{"dx":-2,"dy":0},{"dx":-5,"dy":-4},{"dx":-2,"dy":-1},{"dx":-2,"dy":0},{"dx":-7,"dy":-3},{"dx":-9,"dy":-1},{"dx":-1,"dy":0},{"dx":-8,"dy":0},{"dx":-15,"dy":4},{"dx":-10,"dy":2},{"dx":-1,"dy":1},{"dx":-11,"dy":3},{"dx":-7,"dy":4},{"dx":-9,"dy":3},{"dx":-10,"dy":5},{"dx":-8,"dy":3},{"dx":-8,"dy":5},{"dx":-17,"dy":9},{"dx":-11,"dy":6},{"dx":-11,"dy":5},{"dx":-11,"dy":5},{"dx":-10,"dy":5},{"dx":-9,"dy":6},{"dx":-19,"dy":8},{"dx":-13,"dy":5},{"dx":-14,"dy":4},{"dx":-13,"dy":2},{"dx":-10,"dy":0},{"dx":-10,"dy":2},{"dx":-23,"dy":1},{"dx":-10,"dy":-1},{"dx":-12,"dy":-1},{"dx":-12,"dy":0},{"dx":-11,"dy":-1},{"dx":-12,"dy":-1},{"dx":-9,"dy":-3},{"dx":-15,"dy":-7},{"dx":-7,"dy":-4},{"dx":-7,"dy":-4},{"dx":-7,"dy":-5},{"dx":-6,"dy":-5},{"dx":-6,"dy":-5},{"dx":-7,"dy":-6},{"dx":-1,"dy":-1},{"dx":-4,"dy":-8},{"dx":-3,"dy":-8},{"dx":-2,"dy":-11},{"dx":0,"dy":-1},{"dx":0,"dy":-10},{"dx":-2,"dy":-7},{"dx":0,"dy":-3},{"dx":0,"dy":-9},{"dx":-1,"dy":-2},{"dx":0,"dy":-3},{"dx":0,"dy":-7},{"dx":0,"dy":-4},{"dx":2,"dy":-8},{"dx":0,"dy":-3},{"dx":1,"dy":-2},{"dx":1,"dy":-2},{"dx":2,"dy":-4},{"dx":1,"dy":-1},{"dx":5,"dy":-6},{"dx":8,"dy":-6},{"dx":1,"dy":-1},{"dx":6,"dy":-3},{"dx":8,"dy":-3},{"dx":7,"dy":-3},{"dx":1,"dy":0},{"dx":8,"dy":-3},{"dx":10,"dy":-2},{"dx":1,"dy":0},{"dx":6,"dy":-2},{"dx":8,"dy":-1},{"dx":9,"dy":0},{"dx":10,"dy":0},{"dx":1,"dy":0},{"dx":7,"dy":0},{"dx":7,"dy":0},{"dx":2,"dy":0},{"dx":9,"dy":1},{"dx":2,"dy":1},{"dx":6,"dy":1},{"dx":7,"dy":3},{"dx":8,"dy":3},{"dx":1,"dy":0},{"dx":8,"dy":2},{"dx":8,"dy":2},{"dx":7,"dy":3},{"dx":1,"dy":2},{"dx":8,"dy":3},{"dx":2,"dy":1},{"dx":7,"dy":4},{"dx":2,"dy":1},{"dx":7,"dy":4},{"dx":1,"dy":1},{"dx":6,"dy":4},{"dx":1,"dy":2},{"dx":2,"dy":0},{"dx":3,"dy":2},{"dx":5,"dy":4},{"dx":1,"dy":0},{"dx":5,"dy":5},{"dx":1,"dy":1},{"dx":4,"dy":5},{"dx":5,"dy":6},{"dx":1,"dy":0},{"dx":5,"dy":4},{"dx":8,"dy":7},{"dx":7,"dy":7},{"dx":1,"dy":0},{"dx":7,"dy":5},{"dx":5,"dy":5},{"dx":7,"dy":5},{"dx":0,"dy":1},{"dx":6,"dy":5},{"dx":6,"dy":5},{"dx":5,"dy":7},{"dx":1,"dy":1},{"dx":1,"dy":2},{"dx":4,"dy":6},{"dx":5,"dy":6},{"dx":6,"dy":8},{"dx":5,"dy":7},{"dx":6,"dy":9},{"dx":0,"dy":1},{"dx":6,"dy":7},{"dx":5,"dy":5},{"dx":6,"dy":5},{"dx":0,"dy":0},{"dx":6,"dy":5},{"dx":8,"dy":5},{"dx":0,"dy":0},{"dx":8,"dy":6},{"dx":5,"dy":3},{"dx":1,"dy":1},{"dx":8,"dy":6},{"dx":6,"dy":3},{"dx":8,"dy":5},{"dx":8,"dy":4},{"dx":0,"dy":1},{"dx":7,"dy":3},{"dx":2,"dy":1},{"dx":8,"dy":3},{"dx":1,"dy":0},{"dx":8,"dy":2},{"dx":2,"dy":0},{"dx":7,"dy":0},{"dx":8,"dy":0},{"dx":8,"dy":0},{"dx":1,"dy":0},{"dx":16,"dy":0},{"dx":8,"dy":0},{"dx":8,"dy":0},{"dx":9,"dy":0},{"dx":7,"dy":-1},{"dx":9,"dy":-2},{"dx":17,"dy":-7},{"dx":10,"dy":-4},{"dx":8,"dy":-2},{"dx":9,"dy":-5},{"dx":8,"dy":-4},{"dx":6,"dy":-5},{"dx":6,"dy":-4},{"dx":7,"dy":-8},{"dx":6,"dy":-6},{"dx":6,"dy":-5},{"dx":5,"dy":-6},{"dx":1,"dy":-1},{"dx":4,"dy":-6},{"dx":6,"dy":-9},{"dx":7,"dy":-9},{"dx":0,"dy":-1},{"dx":9,"dy":-15},{"dx":3,"dy":-7},{"dx":0,"dy":-2}],"trial_type":"plugin-moving-dots-2","trial_index":12,"plugin_version":"0.0.1","time_elapsed":150964},{"task":"fixation","rt":818,"stimulus":"<div style=\"font-size:60px;\">+</div>","response":" ","trial_type":"html-keyboard-response","trial_index":13,"plugin_version":"2.1.0","time_elapsed":151783},{"task":"movingdots","control_change":0,"mouse_data":[{"dx":0,"dy":0},{"dx":0,"dy":0},{"dx":0,"dy":0},{"dx":0,"dy":0},{"dx":0,"dy":0},{"dx":0,"dy":0},{"dx":0,"dy":0},{"dx":0,"dy":0},{"dx":0,"dy":0},{"dx":0,"dy":0},{"dx":0,"dy":0},{"dx":0,"dy":0},{"dx":0,"dy":0},{"dx":0,"dy":0},{"dx":0,"dy":0},{"dx":0,"dy":0},{"dx":0,"dy":0},{"dx":0,"dy":0},{"dx":-7,"dy":1},{"dx":-15,"dy":8},{"dx":-6,"dy":2},{"dx":-6,"dy":3},{"dx":-10,"dy":5},{"dx":-6,"dy":3},{"dx":-7,"dy":3},{"dx":-10,"dy":4},{"dx":0,"dy":0},{"dx":-7,"dy":2},{"dx":-2,"dy":1},{"dx":-7,"dy":4},{"dx":0,"dy":0},{"dx":-3,"dy":1},{"dx":-5,"dy":4},{"dx":-2,"dy":1},{"dx":-7,"dy":4},{"dx":-8,"dy":3},{"dx":-1,"dy":0},{"dx":-8,"dy":2},{"dx":-11,"dy":4},{"dx":-8,"dy":3},{"dx":-13,"dy":6},{"dx":-8,"dy":3},{"dx":-8,"dy":3},{"dx":-11,"dy":3},{"dx":-7,"dy":2},{"dx":-9,"dy":3},{"dx":-8,"dy":2},{"dx":-14,"dy":2},{"dx":-9,"dy":2},{"dx":-7,"dy":1},{"dx":-8,"dy":1},{"dx":-7,"dy":0},{"dx":-10,"dy":0},{"dx":-21,"dy":-3},{"dx":-11,"dy":-3},{"dx":-13,"dy":-5},{"dx":-20,"dy":-10},{"dx":-8,"dy":-4},{"dx":-13,"dy":-6},{"dx":-18,"dy":-13},{"dx":-2,"dy":0},{"dx":-7,"dy":-5},{"dx":-7,"dy":-6},{"dx":-1,"dy":-2},{"dx":-4,"dy":-5},{"dx":-2,"dy":-3},{"dx":-4,"dy":-8},{"dx":0,"dy":-2},{"dx":-3,"dy":-7},{"dx":-2,"dy":-10},{"dx":-1,"dy":-1},{"dx":-2,"dy":-10},{"dx":-1,"dy":-1},{"dx":0,"dy":-3},{"dx":0,"dy":-3},{"dx":1,"dy":-9},{"dx":1,"dy":-2},{"dx":5,"dy":-7},{"dx":4,"dy":-8},{"dx":1,"dy":-1},{"dx":6,"dy":-6},{"dx":7,"dy":-5},{"dx":8,"dy":-7},{"dx":6,"dy":-5},{"dx":5,"dy":-5},{"dx":9,"dy":-5},{"dx":7,"dy":-3},{"dx":2,"dy":-1},{"dx":7,"dy":-4},{"dx":7,"dy":-2},{"dx":6,"dy":-3},{"dx":1,"dy":0},{"dx":8,"dy":-4},{"dx":2,"dy":0},{"dx":9,"dy":-2},{"dx":9,"dy":-1},{"dx":7,"dy":0},{"dx":9,"dy":0},{"dx":18,"dy":0},{"dx":7,"dy":0},{"dx":1,"dy":0},{"dx":9,"dy":1},{"dx":8,"dy":2},{"dx":11,"dy":2},{"dx":7,"dy":1},{"dx":11,"dy":3},{"dx":1,"dy":0},{"dx":10,"dy":3},{"dx":7,"dy":2},{"dx":8,"dy":5},{"dx":5,"dy":5},{"dx":1,"dy":0},{"dx":6,"dy":6},{"dx":5,"dy":7},{"dx":6,"dy":7},{"dx":7,"dy":8},{"dx":6,"dy":8},{"dx":10,"dy":15},{"dx":5,"dy":5},{"dx":6,"dy":8},{"dx":6,"dy":6},{"dx":4,"dy":6},{"dx":7,"dy":7},{"dx":8,"dy":8},{"dx":6,"dy":5},{"dx":6,"dy":5},{"dx":6,"dy":7},{"dx":6,"dy":6},{"dx":1,"dy":1},{"dx":6,"dy":5},{"dx":1,"dy":1},{"dx":5,"dy":4},{"dx":2,"dy":2},{"dx":6,"dy":2},{"dx":8,"dy":4},{"dx":1,"dy":0},{"dx":6,"dy":2},{"dx":10,"dy":2},{"dx":10,"dy":1},{"dx":0,"dy":0},{"dx":8,"dy":2},{"dx":17,"dy":0},{"dx":9,"dy":0},{"dx":8,"dy":0},{"dx":9,"dy":-1},{"dx":6,"dy":0},{"dx":10,"dy":-3},{"dx":8,"dy":-3},{"dx":10,"dy":-4},{"dx":1,"dy":-1},{"dx":9,"dy":-3},{"dx":7,"dy":-4},{"dx":5,"dy":-5},{"dx":5,"dy":-7},{"dx":1,"dy":-1},{"dx":4,"dy":-7},{"dx":4,"dy":-7},{"dx":3,"dy":-10},{"dx":3,"dy":-11},{"dx":3,"dy":-12},{"dx":3,"dy":-8},{"dx":0,"dy":-2},{"dx":1,"dy":-11},{"dx":0,"dy":-1},{"dx":0,"dy":-3},{"dx":0,"dy":-4},{"dx":-3,"dy":-9},{"dx":-1,"dy":-1},{"dx":-4,"dy":-7},{"dx":-7,"dy":-7},{"dx":-5,"dy":-7},{"dx":-7,"dy":-6},{"dx":-5,"dy":-7},{"dx":-9,"dy":-4},{"dx":-8,"dy":-4},{"dx":-9,"dy":-1},{"dx":-6,"dy":0},{"dx":-8,"dy":-1},{"dx":-8,"dy":0},{"dx":-9,"dy":0},{"dx":-18,"dy":1},{"dx":-11,"dy":2},{"dx":-12,"dy":1},{"dx":-10,"dy":1},{"dx":-10,"dy":1},{"dx":-9,"dy":3},{"dx":-17,"dy":4},{"dx":-9,"dy":3},{"dx":-9,"dy":4},{"dx":-9,"dy":5},{"dx":-8,"dy":4},{"dx":-8,"dy":3},{"dx":-15,"dy":8},{"dx":-9,"dy":4},{"dx":-13,"dy":6},{"dx":-8,"dy":5},{"dx":-8,"dy":5},{"dx":-7,"dy":4},{"dx":-7,"dy":4},{"dx":-12,"dy":6},{"dx":-9,"dy":6},{"dx":-7,"dy":4},{"dx":-7,"dy":5},{"dx":-7,"dy":5},{"dx":-7,"dy":4},{"dx":-14,"dy":7},{"dx":-6,"dy":3},{"dx":-5,"dy":3},{"dx":-8,"dy":2},{"dx":-8,"dy":2},{"dx":-11,"dy":2},{"dx":-20,"dy":1},{"dx":-10,"dy":0},{"dx":-9,"dy":1},{"dx":-10,"dy":0},{"dx":-10,"dy":0},{"dx":-19,"dy":0},{"dx":-10,"dy":-1},{"dx":-9,"dy":-1},{"dx":-10,"dy":-2},{"dx":-10,"dy":-1},{"dx":-11,"dy":-2},{"dx":-9,"dy":-2},{"dx":-20,"dy":-4},{"dx":-8,"dy":-2},{"dx":-7,"dy":-3},{"dx":-5,"dy":-3},{"dx":-10,"dy":-6},{"dx":-6,"dy":-7},{"dx":-7,"dy":-7},{"dx":-5,"dy":-7},{"dx":-4,"dy":-8},{"dx":-1,"dy":-2},{"dx":-2,"dy":-9},{"dx":-1,"dy":-8},{"dx":-1,"dy":-11},{"dx":0,"dy":0},{"dx":0,"dy":-9},{"dx":2,"dy":-9},{"dx":0,"dy":-2},{"dx":0,"dy":-3},{"dx":2,"dy":-3},{"dx":0,"dy":0},{"dx":1,"dy":-2},{"dx":7,"dy":-5},{"dx":7,"dy":-6},{"dx":7,"dy":-4},{"dx":8,"dy":-4},{"dx":7,"dy":-2},{"dx":8,"dy":-2},{"dx":14,"dy":-3},{"dx":6,"dy":-2},{"dx":7,"dy":-1},{"dx":9,"dy":-1},{"dx":8,"dy":-1},{"dx":7,"dy":0},{"dx":14,"dy":0},{"dx":9,"dy":0},{"dx":6,"dy":0},{"dx":10,"dy":2},{"dx":9,"dy":2},{"dx":11,"dy":2},{"dx":17,"dy":3},{"dx":7,"dy":1},{"dx":7,"dy":2},{"dx":9,"dy":3},{"dx":8,"dy":2},{"dx":8,"dy":3},{"dx":13,"dy":7},{"dx":7,"dy":4},{"dx":6,"dy":4},{"dx":7,"dy":6},{"dx":8,"dy":6},{"dx":7,"dy":6},{"dx":16,"dy":12},{"dx":8,"dy":6},{"dx":7,"dy":6},{"dx":5,"dy":7},{"dx":6,"dy":7},{"dx":5,"dy":6},{"dx":11,"dy":14},{"dx":4,"dy":6},{"dx":5,"dy":7},{"dx":2,"dy":1},{"dx":12,"dy":12},{"dx":2,"dy":1},{"dx":6,"dy":7},{"dx":14,"dy":14},{"dx":5,"dy":5},{"dx":5,"dy":4},{"dx":7,"dy":6},{"dx":6,"dy":5},{"dx":7,"dy":5},{"dx":12,"dy":8},{"dx":7,"dy":2},{"dx":8,"dy":2},{"dx":8,"dy":3},{"dx":7,"dy":2},{"dx":7,"dy":0},{"dx":9,"dy":0},{"dx":2,"dy":0},{"dx":8,"dy":0},{"dx":8,"dy":-2},{"dx":8,"dy":-5},{"dx":7,"dy":-3},{"dx":8,"dy":-3},{"dx":7,"dy":-3},{"dx":9,"dy":-4},{"dx":6,"dy":-5},{"dx":1,"dy":0},{"dx":8,"dy":-5},{"dx":5,"dy":-4},{"dx":1,"dy":-1},{"dx":7,"dy":-6},{"dx":12,"dy":-13},{"dx":0,"dy":-2},{"dx":3,"dy":-7},{"dx":4,"dy":-8},{"dx":0,"dy":0},{"dx":0,"dy":-2},{"dx":1,"dy":-11},{"dx":0,"dy":-1},{"dx":0,"dy":-10},{"dx":0,"dy":-9},{"dx":-2,"dy":-11},{"dx":-1,"dy":-2},{"dx":-3,"dy":-10},{"dx":-5,"dy":-7},{"dx":-5,"dy":-6},{"dx":-8,"dy":-7},{"dx":-5,"dy":-5},{"dx":-6,"dy":-4},{"dx":-12,"dy":-8},{"dx":-7,"dy":-4},{"dx":-5,"dy":-2},{"dx":-8,"dy":-4},{"dx":-9,"dy":-4},{"dx":-1,"dy":-1},{"dx":-17,"dy":-6},{"dx":-7,"dy":-1},{"dx":-9,"dy":-1},{"dx":-13,"dy":-2},{"dx":-11,"dy":0},{"dx":-10,"dy":0},{"dx":-16,"dy":1},{"dx":-7,"dy":0},{"dx":-7,"dy":2},{"dx":-10,"dy":2},{"dx":-12,"dy":2},{"dx":-9,"dy":2},{"dx":-7,"dy":1},{"dx":-10,"dy":3},{"dx":-9,"dy":2},{"dx":-7,"dy":3},{"dx":-2,"dy":0},{"dx":-9,"dy":5},{"dx":0,"dy":0},{"dx":-8,"dy":4},{"dx":-2,"dy":1},{"dx":-6,"dy":6},{"dx":-1,"dy":2},{"dx":-6,"dy":5},{"dx":-1,"dy":1},{"dx":-5,"dy":5},{"dx":-6,"dy":4},{"dx":-7,"dy":7},{"dx":-8,"dy":8},{"dx":-6,"dy":5},{"dx":0,"dy":0},{"dx":-12,"dy":11},{"dx":-7,"dy":5},{"dx":-6,"dy":4},{"dx":-6,"dy":6},{"dx":-9,"dy":5},{"dx":-9,"dy":6},{"dx":0,"dy":0},{"dx":-8,"dy":3},{"dx":-7,"dy":2},{"dx":-9,"dy":3},{"dx":-9,"dy":1},{"dx":-2,"dy":0},{"dx":-8,"dy":2},{"dx":-7,"dy":1},{"dx":-9,"dy":2},{"dx":-9,"dy":0},{"dx":0,"dy":0},{"dx":-7,"dy":0},{"dx":-7,"dy":0},{"dx":-9,"dy":0},{"dx":0,"dy":0},{"dx":-3,"dy":0},{"dx":-1,"dy":-1},{"dx":-2,"dy":-1},{"dx":-2,"dy":-2},{"dx":-1,"dy":-1},{"dx":-1,"dy":-1},{"dx":-1,"dy":-2},{"dx":-2,"dy":-1},{"dx":-1,"dy":-2},{"dx":-1,"dy":-2},{"dx":-1,"dy":-2},{"dx":0,"dy":-3},{"dx":-2,"dy":-3},{"dx":-3,"dy":-8},{"dx":0,"dy":-1},{"dx":-4,"dy":-10},{"dx":0,"dy":-1},{"dx":-1,"dy":-2},{"dx":-2,"dy":-4},{"dx":0,"dy":-2},{"dx":0,"dy":-1},{"dx":-1,"dy":0},{"dx":0,"dy":-1},{"dx":0,"dy":0},{"dx":0,"dy":0},{"dx":0,"dy":0},{"dx":0,"dy":0},{"dx":0,"dy":0},{"dx":0,"dy":0},{"dx":0,"dy":0},{"dx":0,"dy":0},{"dx":0,"dy":0},{"dx":0,"dy":0},{"dx":0,"dy":0},{"dx":0,"dy":0},{"dx":0,"dy":0},{"dx":0,"dy":0},{"dx":0,"dy":0},{"dx":0,"dy":0},{"dx":0,"dy":0},{"dx":0,"dy":0},{"dx":0,"dy":0},{"dx":0,"dy":0},{"dx":0,"dy":0},{"dx":0,"dy":0},{"dx":0,"dy":0},{"dx":0,"dy":0},{"dx":0,"dy":0},{"dx":0,"dy":0},{"dx":0,"dy":0},{"dx":0,"dy":0},{"dx":0,"dy":0},{"dx":0,"dy":0},{"dx":0,"dy":0},{"dx":0,"dy":0},{"dx":0,"dy":0},{"dx":0,"dy":0},{"dx":0,"dy":0},{"dx":0,"dy":0},{"dx":0,"dy":0},{"dx":0,"dy":0},{"dx":13,"dy":-8},{"dx":9,"dy":-4}],"trial_type":"plugin-moving-dots-2","trial_index":14,"plugin_version":"0.0.1","time_elapsed":159298},{"task":"fixation","rt":580,"stimulus":"<div style=\"font-size:60px;\">+</div>","response":" ","trial_type":"html-keyboard-response","trial_index":15,"plugin_version":"2.1.0","time_elapsed":159879},{"task":"movingdots","control_change":0,"mouse_data":[{"dx":0,"dy":0},{"dx":0,"dy":0},{"dx":0,"dy":0},{"dx":0,"dy":0},{"dx":0,"dy":0},{"dx":0,"dy":0},{"dx":0,"dy":0},{"dx":0,"dy":0},{"dx":0,"dy":0},{"dx":0,"dy":0},{"dx":0,"dy":0},{"dx":0,"dy":0},{"dx":0,"dy":0},{"dx":0,"dy":0},{"dx":0,"dy":0},{"dx":0,"dy":0},{"dx":0,"dy":0},{"dx":-6,"dy":0},{"dx":-6,"dy":0},{"dx":-10,"dy":0},{"dx":-8,"dy":0},{"dx":-2,"dy":0},{"dx":-5,"dy":0},{"dx":-2,"dy":0},{"dx":-2,"dy":0},{"dx":-2,"dy":0},{"dx":-3,"dy":0},{"dx":-2,"dy":0},{"dx":-3,"dy":1},{"dx":-8,"dy":4},{"dx":0,"dy":0},{"dx":-9,"dy":5},{"dx":-7,"dy":2},{"dx":-1,"dy":0},{"dx":-8,"dy":2},{"dx":-9,"dy":3},{"dx":-2,"dy":0},{"dx":-7,"dy":3},{"dx":-8,"dy":2},{"dx":-1,"dy":0},{"dx":-6,"dy":2},{"dx":-11,"dy":2},{"dx":-7,"dy":0},{"dx":-8,"dy":0},{"dx":-13,"dy":0},{"dx":-8,"dy":0},{"dx":-7,"dy":-1},{"dx":-7,"dy":-2},{"dx":-7,"dy":-1},{"dx":-7,"dy":-3},{"dx":-13,"dy":-3},{"dx":-7,"dy":-4},{"dx":-2,"dy":-1},{"dx":-9,"dy":-5},{"dx":-6,"dy":-4},{"dx":-6,"dy":-4},{"dx":-7,"dy":-7},{"dx":0,"dy":-1},{"dx":-5,"dy":-8},{"dx":-5,"dy":-10},{"dx":-4,"dy":-8},{"dx":-1,"dy":-2},{"dx":-2,"dy":-10},{"dx":-1,"dy":-7},{"dx":-1,"dy":-11},{"dx":0,"dy":-10},{"dx":1,"dy":-8},{"dx":2,"dy":-12},{"dx":1,"dy":-3},{"dx":3,"dy":-8},{"dx":0,"dy":0},{"dx":6,"dy":-9},{"dx":1,"dy":-1},{"dx":3,"dy":-7},{"dx":6,"dy":-8},{"dx":1,"dy":-1},{"dx":5,"dy":-6},{"dx":1,"dy":-1},{"dx":7,"dy":-4},{"dx":7,"dy":-2},{"dx":0,"dy":-1},{"dx":3,"dy":-1},{"dx":1,"dy":0},{"dx":4,"dy":-1},{"dx":6,"dy":0},{"dx":1,"dy":0},{"dx":8,"dy":0},{"dx":8,"dy":1},{"dx":8,"dy":1},{"dx":9,"dy":2},{"dx":6,"dy":2},{"dx":8,"dy":1},{"dx":10,"dy":3},{"dx":6,"dy":3},{"dx":2,"dy":0},{"dx":5,"dy":4},{"dx":2,"dy":0},{"dx":7,"dy":5},{"dx":6,"dy":5},{"dx":1,"dy":1},{"dx":6,"dy":7},{"dx":0,"dy":0},{"dx":1,"dy":3},{"dx":1,"dy":2},{"dx":3,"dy":7},{"dx":0,"dy":2},{"dx":2,"dy":10},{"dx":0,"dy":0},{"dx":0,"dy":3},{"dx":0,"dy":8},{"dx":0,"dy":2},{"dx":0,"dy":3},{"dx":0,"dy":8},{"dx":0,"dy":2},{"dx":2,"dy":12},{"dx":0,"dy":0},{"dx":1,"dy":8},{"dx":1,"dy":9},{"dx":1,"dy":3},{"dx":2,"dy":8},{"dx":3,"dy":10},{"dx":4,"dy":8},{"dx":0,"dy":0},{"dx":6,"dy":12},{"dx":5,"dy":7},{"dx":5,"dy":5},{"dx":0,"dy":2},{"dx":7,"dy":5},{"dx":1,"dy":0},{"dx":7,"dy":4},{"dx":6,"dy":4},{"dx":10,"dy":5},{"dx":6,"dy":3},{"dx":0,"dy":0},{"dx":7,"dy":2},{"dx":9,"dy":2},{"dx":1,"dy":0},{"dx":8,"dy":2},{"dx":7,"dy":1},{"dx":7,"dy":1},{"dx":1,"dy":0},{"dx":8,"dy":1},{"dx":7,"dy":0},{"dx":2,"dy":1},{"dx":8,"dy":3},{"dx":7,"dy":4},{"dx":8,"dy":3},{"dx":9,"dy":4},{"dx":8,"dy":4},{"dx":1,"dy":1},{"dx":6,"dy":3},{"dx":7,"dy":7},{"dx":0,"dy":0},{"dx":6,"dy":8},{"dx":0,"dy":2},{"dx":0,"dy":2},{"dx":2,"dy":8},{"dx":0,"dy":1},{"dx":1,"dy":10},{"dx":0,"dy":2},{"dx":-1,"dy":9},{"dx":-1,"dy":2},{"dx":-1,"dy":2},{"dx":-2,"dy":7},{"dx":-2,"dy":2},{"dx":-1,"dy":1},{"dx":-2,"dy":2},{"dx":-6,"dy":6},{"dx":-2,"dy":0},{"dx":-6,"dy":5},{"dx":-1,"dy":1},{"dx":-6,"dy":4},{"dx":-3,"dy":2},{"dx":-7,"dy":2},{"dx":-1,"dy":1},{"dx":-8,"dy":3},{"dx":-7,"dy":2},{"dx":-9,"dy":0},{"dx":-10,"dy":1},{"dx":-1,"dy":0},{"dx":-8,"dy":0},{"dx":-8,"dy":0},{"dx":-9,"dy":-2},{"dx":-1,"dy":0},{"dx":-8,"dy":-2},{"dx":-2,"dy":-1},{"dx":-7,"dy":-5},{"dx":-1,"dy":-1},{"dx":-2,"dy":-1},{"dx":-6,"dy":-6},{"dx":-2,"dy":-2},{"dx":-5,"dy":-6},{"dx":-2,"dy":-2},{"dx":-6,"dy":-7},{"dx":-3,"dy":-5},{"dx":-4,"dy":-10},{"dx":-1,"dy":-11},{"dx":0,"dy":-2},{"dx":-2,"dy":-7},{"dx":-1,"dy":-4},{"dx":0,"dy":-9},{"dx":0,"dy":-1},{"dx":2,"dy":-11},{"dx":4,"dy":-6},{"dx":0,"dy":0},{"dx":7,"dy":-7},{"dx":6,"dy":-5},{"dx":1,"dy":0},{"dx":7,"dy":-4},{"dx":5,"dy":-2},{"dx":1,"dy":-1},{"dx":8,"dy":-3},{"dx":2,"dy":-1},{"dx":2,"dy":-1},{"dx":7,"dy":-3},{"dx":7,"dy":-4},{"dx":7,"dy":-2},{"dx":6,"dy":-3},{"dx":7,"dy":-1},{"dx":7,"dy":-1},{"dx":13,"dy":-2},{"dx":8,"dy":0},{"dx":9,"dy":0},{"dx":14,"dy":-1},{"dx":16,"dy":0},{"dx":11,"dy":-1},{"dx":17,"dy":-2},{"dx":9,"dy":-2},{"dx":7,"dy":-1},{"dx":8,"dy":-2},{"dx":8,"dy":-3},{"dx":1,"dy":-1},{"dx":8,"dy":-4},{"dx":7,"dy":-5},{"dx":6,"dy":-4},{"dx":1,"dy":-1},{"dx":1,"dy":-2},{"dx":1,"dy":-1},{"dx":5,"dy":-7},{"dx":1,"dy":-2},{"dx":2,"dy":-7},{"dx":2,"dy":-8},{"dx":1,"dy":-3},{"dx":1,"dy":-8},{"dx":0,"dy":-3},{"dx":0,"dy":-3},{"dx":-2,"dy":-8},{"dx":-1,"dy":-3},{"dx":-3,"dy":-8},{"dx":-1,"dy":-1},{"dx":-2,"dy":-7},{"dx":-8,"dy":-7},{"dx":0,"dy":-1},{"dx":-10,"dy":-5},{"dx":-1,"dy":-1},{"dx":-7,"dy":-2},{"dx":-7,"dy":-3},{"dx":-8,"dy":-2},{"dx":-1,"dy":-1},{"dx":-8,"dy":0},{"dx":-9,"dy":-1},{"dx":-8,"dy":-1},{"dx":-13,"dy":0},{"dx":-7,"dy":0},{"dx":-8,"dy":0},{"dx":-7,"dy":0},{"dx":-7,"dy":0},{"dx":-10,"dy":0},{"dx":-17,"dy":0},{"dx":-9,"dy":0},{"dx":-11,"dy":0},{"dx":-9,"dy":-1},{"dx":-10,"dy":0},{"dx":-13,"dy":0},{"dx":-11,"dy":-1},{"dx":-20,"dy":-1},{"dx":-11,"dy":-3},{"dx":-11,"dy":-2},{"dx":-11,"dy":-3},{"dx":-10,"dy":-3},{"dx":-8,"dy":-4},{"dx":-15,"dy":-8},{"dx":-10,"dy":-6},{"dx":-7,"dy":-5},{"dx":-7,"dy":-5},{"dx":-7,"dy":-8},{"dx":-7,"dy":-8},{"dx":-8,"dy":-14},{"dx":-1,"dy":0},{"dx":-2,"dy":-9},{"dx":-2,"dy":-11},{"dx":0,"dy":-1},{"dx":0,"dy":-8},{"dx":2,"dy":-12},{"dx":2,"dy":-10},{"dx":1,"dy":-8},{"dx":3,"dy":-9},{"dx":3,"dy":-6},{"dx":0,"dy":0},{"dx":5,"dy":0},{"dx":1,"dy":0},{"dx":6,"dy":0},{"dx":7,"dy":0},{"dx":8,"dy":0},{"dx":4,"dy":0},{"dx":6,"dy":0},{"dx":9,"dy":0},{"dx":9,"dy":0},{"dx":11,"dy":0},{"dx":9,"dy":0},{"dx":7,"dy":0},{"dx":9,"dy":0},{"dx":10,"dy":0},{"dx":12,"dy":0},{"dx":21,"dy":0},{"dx":11,"dy":1},{"dx":13,"dy":3},{"dx":15,"dy":4},{"dx":11,"dy":2},{"dx":8,"dy":3},{"dx":8,"dy":4},{"dx":7,"dy":4},{"dx":7,"dy":4},{"dx":7,"dy":7},{"dx":7,"dy":5},{"dx":7,"dy":7},{"dx":5,"dy":5},{"dx":5,"dy":7},{"dx":1,"dy":1},{"dx":5,"dy":7},{"dx":4,"dy":6},{"dx":1,"dy":1},{"dx":4,"dy":8},{"dx":0,"dy":1},{"dx":3,"dy":6},{"dx":4,"dy":7},{"dx":0,"dy":2},{"dx":1,"dy":1},{"dx":3,"dy":10},{"dx":0,"dy":0},{"dx":0,"dy":2},{"dx":1,"dy":2},{"dx":1,"dy":3},{"dx":0,"dy":2},{"dx":1,"dy":3},{"dx":0,"dy":3},{"dx":1,"dy":2},{"dx":1,"dy":10},{"dx":0,"dy":1},{"dx":0,"dy":2},{"dx":0,"dy":2},{"dx":0,"dy":3},{"dx":0,"dy":2},{"dx":0,"dy":2},{"dx":-1,"dy":4},{"dx":0,"dy":2},{"dx":-1,"dy":3},{"dx":-1,"dy":3},{"dx":-2,"dy":2},{"dx":0,"dy":2},{"dx":-2,"dy":3},{"dx":-3,"dy":7},{"dx":0,"dy":0},{"dx":-2,"dy":3},{"dx":-4,"dy":7},{"dx":-1,"dy":1},{"dx":-2,"dy":2},{"dx":-6,"dy":7},{"dx":-1,"dy":1},{"dx":-2,"dy":2},{"dx":-6,"dy":5},{"dx":-1,"dy":1},{"dx":-2,"dy":2},{"dx":-5,"dy":4},{"dx":-1,"dy":1},{"dx":-2,"dy":2},{"dx":-2,"dy":1},{"dx":-2,"dy":1},{"dx":-7,"dy":5},{"dx":-2,"dy":1},{"dx":-6,"dy":4},{"dx":-2,"dy":0},{"dx":-6,"dy":4},{"dx":-2,"dy":1},{"dx":-9,"dy":4},{"dx":-6,"dy":2},{"dx":-9,"dy":4},{"dx":-10,"dy":6},{"dx":-2,"dy":0},{"dx":-10,"dy":4},{"dx":-8,"dy":4},{"dx":-7,"dy":2},{"dx":-8,"dy":3},{"dx":-10,"dy":4},{"dx":-9,"dy":3},{"dx":-1,"dy":0},{"dx":-16,"dy":7},{"dx":-8,"dy":4},{"dx":0,"dy":1},{"dx":-6,"dy":5},{"dx":-5,"dy":6},{"dx":-1,"dy":2},{"dx":-1,"dy":8},{"dx":-2,"dy":8},{"dx":0,"dy":2},{"dx":0,"dy":17},{"dx":0,"dy":8},{"dx":1,"dy":10},{"dx":0,"dy":9},{"dx":1,"dy":1},{"dx":2,"dy":8},{"dx":0,"dy":2},{"dx":4,"dy":8},{"dx":3,"dy":7},{"dx":6,"dy":8},{"dx":5,"dy":8},{"dx":5,"dy":7},{"dx":8,"dy":14},{"dx":5,"dy":9},{"dx":5,"dy":7},{"dx":6,"dy":8},{"dx":6,"dy":6},{"dx":5,"dy":5},{"dx":10,"dy":9},{"dx":1,"dy":0},{"dx":8,"dy":7},{"dx":7,"dy":6},{"dx":9,"dy":7},{"dx":5,"dy":4},{"dx":5,"dy":4},{"dx":8,"dy":6},{"dx":2,"dy":1},{"dx":6,"dy":6},{"dx":6,"dy":4},{"dx":1,"dy":1},{"dx":4,"dy":4},{"dx":2,"dy":1},{"dx":6,"dy":5},{"dx":0,"dy":0},{"dx":6,"dy":3},{"dx":1,"dy":2},{"dx":7,"dy":3},{"dx":7,"dy":4},{"dx":0,"dy":1},{"dx":9,"dy":4},{"dx":1,"dy":0},{"dx":7,"dy":3},{"dx":9,"dy":3},{"dx":0,"dy":0},{"dx":2,"dy":0},{"dx":8,"dy":3},{"dx":1,"dy":0}],"trial_type":"plugin-moving-dots-2","trial_index":16,"plugin_version":"0.0.1","time_elapsed":167383},{"task":"fixation","rt":830,"stimulus":"<div style=\"font-size:60px;\">+</div>","response":" ","trial_type":"html-keyboard-response","trial_index":17,"plugin_version":"2.1.0","time_elapsed":168216},{"task":"movingdots","control_change":0,"mouse_data":[{"dx":0,"dy":0},{"dx":0,"dy":0},{"dx":0,"dy":0},{"dx":0,"dy":0},{"dx":0,"dy":0},{"dx":0,"dy":0},{"dx":0,"dy":0},{"dx":0,"dy":0},{"dx":0,"dy":0},{"dx":0,"dy":0},{"dx":0,"dy":0},{"dx":0,"dy":0},{"dx":0,"dy":0},{"dx":0,"dy":0},{"dx":0,"dy":0},{"dx":0,"dy":0},{"dx":0,"dy":0},{"dx":-3,"dy":-7},{"dx":-4,"dy":-10},{"dx":-4,"dy":-7},{"dx":-6,"dy":-8},{"dx":-5,"dy":-8},{"dx":-4,"dy":-8},{"dx":-4,"dy":-8},{"dx":-5,"dy":-9},{"dx":-4,"dy":-6},{"dx":-3,"dy":-9},{"dx":-4,"dy":-8},{"dx":0,"dy":-2},{"dx":-4,"dy":-9},{"dx":-1,"dy":-2},{"dx":-3,"dy":-7},{"dx":-6,"dy":-8},{"dx":-1,"dy":-1},{"dx":-4,"dy":-7},{"dx":-4,"dy":-7},{"dx":-8,"dy":-7},{"dx":-1,"dy":-1},{"dx":-6,"dy":-6},{"dx":-6,"dy":-5},{"dx":-8,"dy":-7},{"dx":0,"dy":-1},{"dx":-9,"dy":-14},{"dx":-4,"dy":-8},{"dx":-5,"dy":-8},{"dx":-5,"dy":-7},{"dx":-5,"dy":-9},{"dx":-1,"dy":0},{"dx":-3,"dy":-9},{"dx":-1,"dy":-3},{"dx":-1,"dy":-8},{"dx":0,"dy":-10},{"dx":0,"dy":-9},{"dx":0,"dy":-2},{"dx":0,"dy":-7},{"dx":1,"dy":-7},{"dx":4,"dy":-11},{"dx":4,"dy":-10},{"dx":4,"dy":-7},{"dx":0,"dy":-3},{"dx":9,"dy":-17},{"dx":1,"dy":-1},{"dx":4,"dy":-6},{"dx":1,"dy":-3},{"dx":3,"dy":-4},{"dx":2,"dy":-2},{"dx":6,"dy":-6},{"dx":0,"dy":-2},{"dx":6,"dy":-6},{"dx":5,"dy":-8},{"dx":1,"dy":0},{"dx":4,"dy":-7},{"dx":1,"dy":-1},{"dx":4,"dy":-7},{"dx":0,"dy":-1},{"dx":1,"dy":-2},{"dx":1,"dy":-3},{"dx":4,"dy":-9},{"dx":0,"dy":-2},{"dx":4,"dy":-8},{"dx":1,"dy":-1},{"dx":4,"dy":-7},{"dx":2,"dy":-2},{"dx":0,"dy":-2},{"dx":2,"dy":-2},{"dx":2,"dy":-2},{"dx":5,"dy":-6},{"dx":4,"dy":-6},{"dx":2,"dy":-1},{"dx":5,"dy":-6},{"dx":8,"dy":-7},{"dx":6,"dy":-5},{"dx":7,"dy":-7},{"dx":6,"dy":-6},{"dx":0,"dy":0},{"dx":6,"dy":-4},{"dx":1,"dy":-2},{"dx":6,"dy":-3},{"dx":2,"dy":-1},{"dx":7,"dy":-5},{"dx":1,"dy":0},{"dx":7,"dy":-3},{"dx":1,"dy":-1},{"dx":2,"dy":-1},{"dx":1,"dy":0},{"dx":2,"dy":-1},{"dx":3,"dy":0},{"dx":2,"dy":-1},{"dx":7,"dy":-1},{"dx":2,"dy":0},{"dx":6,"dy":0},{"dx":2,"dy":0},{"dx":7,"dy":-1},{"dx":1,"dy":0},{"dx":7,"dy":0},{"dx":10,"dy":0},{"dx":0,"dy":0},{"dx":6,"dy":0},{"dx":9,"dy":0},{"dx":7,"dy":0},{"dx":1,"dy":0},{"dx":10,"dy":1},{"dx":7,"dy":2},{"dx":2,"dy":1},{"dx":7,"dy":2},{"dx":2,"dy":1},{"dx":6,"dy":3},{"dx":2,"dy":1},{"dx":6,"dy":4},{"dx":1,"dy":1},{"dx":6,"dy":4},{"dx":0,"dy":0},{"dx":1,"dy":2},{"dx":7,"dy":7},{"dx":0,"dy":0},{"dx":1,"dy":2},{"dx":4,"dy":7},{"dx":2,"dy":2},{"dx":3,"dy":6},{"dx":1,"dy":2},{"dx":3,"dy":8},{"dx":0,"dy":1},{"dx":1,"dy":3},{"dx":3,"dy":8},{"dx":0,"dy":2},{"dx":2,"dy":10},{"dx":1,"dy":2},{"dx":1,"dy":8},{"dx":1,"dy":2},{"dx":0,"dy":2},{"dx":0,"dy":3},{"dx":2,"dy":7},{"dx":0,"dy":3},{"dx":0,"dy":8},{"dx":-1,"dy":9},{"dx":-1,"dy":2},{"dx":0,"dy":9},{"dx":-3,"dy":9},{"dx":-2,"dy":10},{"dx":-2,"dy":10},{"dx":-2,"dy":10},{"dx":-2,"dy":8},{"dx":-4,"dy":12},{"dx":-2,"dy":8},{"dx":-1,"dy":0},{"dx":-3,"dy":10},{"dx":-5,"dy":8},{"dx":-1,"dy":1},{"dx":-4,"dy":7},{"dx":-1,"dy":2},{"dx":-4,"dy":4},{"dx":0,"dy":1},{"dx":-3,"dy":2},{"dx":-4,"dy":7},{"dx":-1,"dy":0},{"dx":-6,"dy":7},{"dx":-2,"dy":2},{"dx":-6,"dy":5},{"dx":0,"dy":1},{"dx":-6,"dy":6},{"dx":-6,"dy":4},{"dx":-6,"dy":4},{"dx":-1,"dy":1},{"dx":-7,"dy":4},{"dx":-8,"dy":5},{"dx":-7,"dy":5},{"dx":-8,"dy":4},{"dx":-2,"dy":1},{"dx":-7,"dy":4},{"dx":-7,"dy":3},{"dx":-1,"dy":0},{"dx":-8,"dy":4},{"dx":-7,"dy":2},{"dx":0,"dy":0},{"dx":-8,"dy":3},{"dx":-8,"dy":2},{"dx":-1,"dy":0},{"dx":-8,"dy":3},{"dx":-1,"dy":0},{"dx":-1,"dy":0},{"dx":-4,"dy":1},{"dx":-7,"dy":2},{"dx":-2,"dy":0},{"dx":-8,"dy":2},{"dx":-1,"dy":0},{"dx":-9,"dy":1},{"dx":-14,"dy":2},{"dx":-8,"dy":1},{"dx":-7,"dy":0},{"dx":-7,"dy":0},{"dx":-9,"dy":1},{"dx":-8,"dy":0},{"dx":-15,"dy":1},{"dx":-8,"dy":0},{"dx":-8,"dy":0},{"dx":-8,"dy":0},{"dx":-6,"dy":0},{"dx":-8,"dy":0},{"dx":-8,"dy":2},{"dx":-10,"dy":2},{"dx":-6,"dy":1},{"dx":-11,"dy":2},{"dx":-7,"dy":1},{"dx":-8,"dy":2},{"dx":-15,"dy":3},{"dx":-8,"dy":1},{"dx":-1,"dy":0},{"dx":-9,"dy":2},{"dx":-7,"dy":3},{"dx":-1,"dy":0},{"dx":-7,"dy":3},{"dx":-2,"dy":1},{"dx":-2,"dy":1},{"dx":-7,"dy":5},{"dx":0,"dy":0},{"dx":-7,"dy":6},{"dx":-5,"dy":5},{"dx":-1,"dy":1},{"dx":-4,"dy":4},{"dx":-6,"dy":7},{"dx":0,"dy":1},{"dx":-2,"dy":2},{"dx":-4,"dy":6},{"dx":-1,"dy":3},{"dx":-2,"dy":9},{"dx":-1,"dy":7},{"dx":0,"dy":3},{"dx":0,"dy":9},{"dx":0,"dy":2},{"dx":2,"dy":9},{"dx":3,"dy":10},{"dx":4,"dy":7},{"dx":4,"dy":7},{"dx":3,"dy":6},{"dx":12,"dy":14},{"dx":6,"dy":4},{"dx":1,"dy":0},{"dx":8,"dy":4},{"dx":10,"dy":3},{"dx":8,"dy":2},{"dx":7,"dy":1},{"dx":16,"dy":3},{"dx":7,"dy":1},{"dx":8,"dy":0},{"dx":7,"dy":1},{"dx":8,"dy":1},{"dx":1,"dy":0},{"dx":10,"dy":0},{"dx":6,"dy":0},{"dx":7,"dy":0},{"dx":9,"dy":0},{"dx":8,"dy":0},{"dx":8,"dy":0},{"dx":8,"dy":1},{"dx":12,"dy":0},{"dx":8,"dy":0},{"dx":9,"dy":0},{"dx":1,"dy":0},{"dx":7,"dy":0},{"dx":10,"dy":0},{"dx":1,"dy":0},{"dx":8,"dy":0},{"dx":8,"dy":0},{"dx":8,"dy":-1},{"dx":0,"dy":0},{"dx":8,"dy":-1},{"dx":8,"dy":-2},{"dx":7,"dy":-2},{"dx":6,"dy":0},{"dx":2,"dy":-1},{"dx":8,"dy":-1},{"dx":1,"dy":-1},{"dx":7,"dy":-1},{"dx":2,"dy":-1},{"dx":7,"dy":-2},{"dx":1,"dy":0},{"dx":2,"dy":-2},{"dx":3,"dy":0},{"dx":2,"dy":-1},{"dx":2,"dy":0},{"dx":2,"dy":-2},{"dx":1,"dy":0},{"dx":1,"dy":-1},{"dx":1,"dy":-1},{"dx":1,"dy":-1},{"dx":1,"dy":-1},{"dx":0,"dy":-1},{"dx":0,"dy":0},{"dx":0,"dy":0},{"dx":0,"dy":0},{"dx":0,"dy":0},{"dx":0,"dy":0},{"dx":0,"dy":-2},{"dx":0,"dy":-2},{"dx":0,"dy":-3},{"dx":0,"dy":-3},{"dx":0,"dy":-1},{"dx":-1,"dy":-2},{"dx":-2,"dy":-2},{"dx":-6,"dy":-3},{"dx":-10,"dy":-1},{"dx":-7,"dy":-1},{"dx":-8,"dy":0},{"dx":-7,"dy":0},{"dx":-2,"dy":0},{"dx":-8,"dy":1},{"dx":-2,"dy":0},{"dx":-5,"dy":4},{"dx":-8,"dy":5},{"dx":-1,"dy":0},{"dx":-8,"dy":5},{"dx":-7,"dy":3},{"dx":-8,"dy":5},{"dx":-9,"dy":5},{"dx":-9,"dy":5},{"dx":-1,"dy":0},{"dx":-1,"dy":1},{"dx":-3,"dy":3},{"dx":-4,"dy":4},{"dx":-1,"dy":1},{"dx":-2,"dy":3},{"dx":-2,"dy":1},{"dx":-5,"dy":4},{"dx":-9,"dy":2},{"dx":-8,"dy":1},{"dx":-7,"dy":0},{"dx":-9,"dy":1},{"dx":-8,"dy":0},{"dx":-7,"dy":0},{"dx":-14,"dy":0},{"dx":-8,"dy":0},{"dx":-7,"dy":0},{"dx":-8,"dy":0},{"dx":-3,"dy":0},{"dx":-6,"dy":0},{"dx":-3,"dy":0},{"dx":-9,"dy":0},{"dx":0,"dy":0},{"dx":-3,"dy":0},{"dx":-7,"dy":0},{"dx":-10,"dy":0},{"dx":-7,"dy":0},{"dx":-8,"dy":0},{"dx":-10,"dy":0},{"dx":-18,"dy":0},{"dx":-2,"dy":0},{"dx":-8,"dy":0},{"dx":-8,"dy":0},{"dx":-2,"dy":0},{"dx":-9,"dy":-1},{"dx":-1,"dy":-1},{"dx":-2,"dy":0},{"dx":-9,"dy":-2},{"dx":-2,"dy":-1},{"dx":-3,"dy":-1},{"dx":-4,"dy":-3},{"dx":-2,"dy":-1},{"dx":-2,"dy":-1},{"dx":-1,"dy":-2},{"dx":-2,"dy":-2},{"dx":-3,"dy":-9},{"dx":0,"dy":-1},{"dx":-1,"dy":-4},{"dx":-1,"dy":-9},{"dx":0,"dy":-1},{"dx":0,"dy":-10},{"dx":0,"dy":-2},{"dx":2,"dy":-7},{"dx":1,"dy":-3},{"dx":2,"dy":-9},{"dx":1,"dy":-2},{"dx":3,"dy":-9},{"dx":3,"dy":-7},{"dx":0,"dy":-1},{"dx":6,"dy":-18},{"dx":5,"dy":-7},{"dx":6,"dy":-8},{"dx":6,"dy":-8},{"dx":6,"dy":-7},{"dx":6,"dy":-8},{"dx":10,"dy":-15},{"dx":7,"dy":-7},{"dx":6,"dy":-6},{"dx":7,"dy":-7},{"dx":4,"dy":-3},{"dx":7,"dy":-3},{"dx":9,"dy":-3},{"dx":10,"dy":0},{"dx":7,"dy":3},{"dx":16,"dy":9},{"dx":11,"dy":8},{"dx":11,"dy":8},{"dx":12,"dy":10},{"dx":11,"dy":6},{"dx":11,"dy":5},{"dx":10,"dy":4},{"dx":29,"dy":8},{"dx":9,"dy":1},{"dx":13,"dy":2},{"dx":21,"dy":3},{"dx":11,"dy":2},{"dx":10,"dy":1},{"dx":10,"dy":1},{"dx":9,"dy":1},{"dx":9,"dy":0},{"dx":14,"dy":-1},{"dx":9,"dy":-1},{"dx":0,"dy":0},{"dx":8,"dy":-1},{"dx":6,"dy":-3},{"dx":9,"dy":-5},{"dx":6,"dy":-4},{"dx":7,"dy":-5},{"dx":9,"dy":-5},{"dx":11,"dy":-7},{"dx":6,"dy":-4},{"dx":9,"dy":-4},{"dx":7,"dy":-4},{"dx":7,"dy":-4},{"dx":6,"dy":-4},{"dx":8,"dy":-3},{"dx":7,"dy":-4},{"dx":7,"dy":-4},{"dx":6,"dy":-7},{"dx":5,"dy":-6},{"dx":5,"dy":-8},{"dx":6,"dy":-16},{"dx":3,"dy":-9},{"dx":0,"dy":-10},{"dx":0,"dy":-9},{"dx":0,"dy":-10},{"dx":0,"dy":-10},{"dx":-2,"dy":-10}],"trial_type":"plugin-moving-dots-2","trial_index":18,"plugin_version":"0.0.1","time_elapsed":175732},{"task":"fixation","rt":2243,"stimulus":"<div style=\"font-size:60px;\">+</div>","response":" ","trial_type":"html-keyboard-response","trial_index":19,"plugin_version":"2.1.0","time_elapsed":177976},{"task":"movingdots","control_change":0,"mouse_data":[{"dx":0,"dy":0},{"dx":0,"dy":0},{"dx":0,"dy":0},{"dx":0,"dy":0},{"dx":0,"dy":0},{"dx":0,"dy":0},{"dx":0,"dy":0},{"dx":0,"dy":0},{"dx":0,"dy":0},{"dx":0,"dy":0},{"dx":0,"dy":0},{"dx":0,"dy":0},{"dx":0,"dy":0},{"dx":0,"dy":0},{"dx":0,"dy":0},{"dx":0,"dy":0},{"dx":0,"dy":0},{"dx":0,"dy":0},{"dx":0,"dy":0},{"dx":0,"dy":0},{"dx":0,"dy":0},{"dx":0,"dy":0},{"dx":0,"dy":0},{"dx":0,"dy":0},{"dx":0,"dy":0},{"dx":0,"dy":0},{"dx":0,"dy":0},{"dx":0,"dy":0},{"dx":0,"dy":0},{"dx":0,"dy":0},{"dx":-2,"dy":2},{"dx":-5,"dy":7},{"dx":-2,"dy":1},{"dx":-5,"dy":4},{"dx":-9,"dy":6},{"dx":-8,"dy":4},{"dx":-9,"dy":4},{"dx":-2,"dy":0},{"dx":-7,"dy":5},{"dx":-7,"dy":3},{"dx":-8,"dy":3},{"dx":-1,"dy":0},{"dx":-2,"dy":1},{"dx":-3,"dy":1},{"dx":-1,"dy":1},{"dx":-4,"dy":0},{"dx":-3,"dy":1},{"dx":-2,"dy":0},{"dx":-4,"dy":0},{"dx":-7,"dy":0},{"dx":-1,"dy":0},{"dx":-3,"dy":0},{"dx":-6,"dy":-3},{"dx":-2,"dy":-1},{"dx":-7,"dy":-4},{"dx":-1,"dy":0},{"dx":-8,"dy":-5},{"dx":0,"dy":-2},{"dx":-2,"dy":0},{"dx":-1,"dy":-2},{"dx":-2,"dy":-3},{"dx":-2,"dy":-2},{"dx":-2,"dy":-10},{"dx":-1,"dy":-2},{"dx":0,"dy":-9},{"dx":0,"dy":-2},{"dx":0,"dy":-9},{"dx":0,"dy":-8},{"dx":0,"dy":-2},{"dx":1,"dy":-9},{"dx":0,"dy":-3},{"dx":1,"dy":-3},{"dx":1,"dy":-2},{"dx":1,"dy":-2},{"dx":1,"dy":-2},{"dx":1,"dy":-2},{"dx":1,"dy":-1},{"dx":2,"dy":-2},{"dx":1,"dy":-2},{"dx":1,"dy":0},{"dx":0,"dy":0},{"dx":2,"dy":-1},{"dx":1,"dy":-1},{"dx":3,"dy":0},{"dx":7,"dy":-1},{"dx":9,"dy":0},{"dx":1,"dy":0},{"dx":8,"dy":0},{"dx":9,"dy":1},{"dx":8,"dy":2},{"dx":1,"dy":1},{"dx":17,"dy":8},{"dx":8,"dy":3},{"dx":7,"dy":4},{"dx":7,"dy":2},{"dx":6,"dy":3},{"dx":8,"dy":5},{"dx":7,"dy":4},{"dx":1,"dy":1},{"dx":7,"dy":6},{"dx":6,"dy":5},{"dx":5,"dy":6},{"dx":1,"dy":0},{"dx":13,"dy":11},{"dx":1,"dy":2},{"dx":8,"dy":6},{"dx":6,"dy":6},{"dx":5,"dy":5},{"dx":9,"dy":6},{"dx":9,"dy":5},{"dx":1,"dy":0},{"dx":9,"dy":2},{"dx":7,"dy":1},{"dx":8,"dy":0},{"dx":1,"dy":0},{"dx":9,"dy":0},{"dx":1,"dy":0},{"dx":2,"dy":0},{"dx":5,"dy":-1},{"dx":1,"dy":0},{"dx":2,"dy":0},{"dx":3,"dy":-2},{"dx":2,"dy":-1},{"dx":1,"dy":-1},{"dx":2,"dy":-2},{"dx":6,"dy":-4},{"dx":7,"dy":-7},{"dx":6,"dy":-5},{"dx":0,"dy":-1},{"dx":5,"dy":-7},{"dx":5,"dy":-7},{"dx":2,"dy":-2},{"dx":0,"dy":-2},{"dx":2,"dy":-4},{"dx":1,"dy":-2},{"dx":0,"dy":-1},{"dx":0,"dy":-2},{"dx":0,"dy":-1},{"dx":2,"dy":-2},{"dx":0,"dy":-3},{"dx":1,"dy":-4},{"dx":1,"dy":-7},{"dx":0,"dy":-2},{"dx":-1,"dy":-11},{"dx":-1,"dy":-1},{"dx":-3,"dy":-9},{"dx":-4,"dy":-6},{"dx":-4,"dy":-5},{"dx":-1,"dy":-2},{"dx":-7,"dy":-7},{"dx":-10,"dy":-5},{"dx":-7,"dy":-3},{"dx":-14,"dy":-1},{"dx":-2,"dy":0},{"dx":-9,"dy":0},{"dx":-10,"dy":0},{"dx":-8,"dy":3},{"dx":-2,"dy":0},{"dx":-7,"dy":4},{"dx":-8,"dy":4},{"dx":-8,"dy":4},{"dx":-2,"dy":2},{"dx":-5,"dy":5},{"dx":-2,"dy":1},{"dx":-5,"dy":7},{"dx":-6,"dy":5},{"dx":0,"dy":1},{"dx":-6,"dy":8},{"dx":-1,"dy":1},{"dx":-1,"dy":2},{"dx":-2,"dy":3},{"dx":-2,"dy":3},{"dx":0,"dy":2},{"dx":-1,"dy":3},{"dx":-1,"dy":2},{"dx":0,"dy":3},{"dx":-1,"dy":8},{"dx":0,"dy":2},{"dx":0,"dy":2},{"dx":-1,"dy":7},{"dx":0,"dy":2},{"dx":0,"dy":2},{"dx":-2,"dy":4},{"dx":0,"dy":2},{"dx":-2,"dy":2},{"dx":-1,"dy":4},{"dx":-1,"dy":2},{"dx":-3,"dy":7},{"dx":-2,"dy":1},{"dx":-6,"dy":4},{"dx":-1,"dy":0},{"dx":-8,"dy":2},{"dx":-9,"dy":1},{"dx":-7,"dy":0},{"dx":-8,"dy":1},{"dx":-9,"dy":0},{"dx":-2,"dy":0},{"dx":-8,"dy":0},{"dx":-2,"dy":-1},{"dx":-1,"dy":0},{"dx":-9,"dy":-2},{"dx":-1,"dy":-1},{"dx":-7,"dy":-4},{"dx":-1,"dy":-1},{"dx":-1,"dy":-1},{"dx":-2,"dy":-2},{"dx":-6,"dy":-7},{"dx":-1,"dy":-2},{"dx":-4,"dy":-6},{"dx":-4,"dy":-10},{"dx":0,"dy":-2},{"dx":-1,"dy":-8},{"dx":0,"dy":-11},{"dx":0,"dy":-1},{"dx":0,"dy":-2},{"dx":5,"dy":-8},{"dx":1,"dy":-2},{"dx":5,"dy":-5},{"dx":6,"dy":-6},{"dx":7,"dy":-4},{"dx":0,"dy":-1},{"dx":3,"dy":-1},{"dx":2,"dy":-2},{"dx":3,"dy":0},{"dx":2,"dy":-2},{"dx":2,"dy":0},{"dx":7,"dy":1},{"dx":1,"dy":0},{"dx":8,"dy":4},{"dx":8,"dy":4},{"dx":7,"dy":2},{"dx":14,"dy":8},{"dx":7,"dy":4},{"dx":7,"dy":3},{"dx":9,"dy":6},{"dx":7,"dy":4},{"dx":8,"dy":3},{"dx":7,"dy":3},{"dx":9,"dy":3},{"dx":9,"dy":5},{"dx":7,"dy":3},{"dx":0,"dy":0},{"dx":8,"dy":3},{"dx":15,"dy":7},{"dx":8,"dy":2},{"dx":7,"dy":1},{"dx":8,"dy":1},{"dx":7,"dy":1},{"dx":5,"dy":0},{"dx":14,"dy":1},{"dx":8,"dy":0},{"dx":9,"dy":0},{"dx":6,"dy":-1},{"dx":10,"dy":-1},{"dx":0,"dy":-1},{"dx":8,"dy":-4},{"dx":1,"dy":-2},{"dx":6,"dy":-7},{"dx":1,"dy":-1},{"dx":1,"dy":-3},{"dx":3,"dy":-9},{"dx":0,"dy":-1},{"dx":0,"dy":-3},{"dx":1,"dy":-8},{"dx":0,"dy":-4},{"dx":1,"dy":-8},{"dx":0,"dy":-2},{"dx":0,"dy":-10},{"dx":0,"dy":-2},{"dx":0,"dy":-6},{"dx":0,"dy":-4},{"dx":-1,"dy":-8},{"dx":-2,"dy":-2},{"dx":-6,"dy":-7},{"dx":-1,"dy":-1},{"dx":-9,"dy":-3},{"dx":-10,"dy":-1},{"dx":-7,"dy":-1},{"dx":-9,"dy":-1},{"dx":-8,"dy":0},{"dx":-9,"dy":0},{"dx":-7,"dy":0},{"dx":-13,"dy":1},{"dx":-1,"dy":0},{"dx":-10,"dy":2},{"dx":0,"dy":0},{"dx":-3,"dy":2},{"dx":-7,"dy":4},{"dx":0,"dy":1},{"dx":-5,"dy":5},{"dx":-2,"dy":1},{"dx":-5,"dy":8},{"dx":-3,"dy":6},{"dx":-1,"dy":1},{"dx":-2,"dy":7},{"dx":0,"dy":2},{"dx":0,"dy":9},{"dx":3,"dy":9},{"dx":0,"dy":0},{"dx":6,"dy":8},{"dx":3,"dy":7},{"dx":1,"dy":1},{"dx":3,"dy":5},{"dx":4,"dy":7},{"dx":0,"dy":2},{"dx":4,"dy":9},{"dx":1,"dy":2},{"dx":1,"dy":2},{"dx":1,"dy":7},{"dx":0,"dy":2},{"dx":0,"dy":3},{"dx":1,"dy":8},{"dx":0,"dy":1},{"dx":0,"dy":3},{"dx":-1,"dy":3},{"dx":-1,"dy":7},{"dx":-1,"dy":1},{"dx":-1,"dy":2},{"dx":-1,"dy":3},{"dx":-2,"dy":2},{"dx":-1,"dy":2},{"dx":-4,"dy":7},{"dx":-2,"dy":1},{"dx":-5,"dy":5},{"dx":-1,"dy":0},{"dx":-6,"dy":4},{"dx":-7,"dy":3},{"dx":-7,"dy":2},{"dx":-8,"dy":1},{"dx":-2,"dy":0},{"dx":-8,"dy":2},{"dx":-8,"dy":1},{"dx":-7,"dy":1},{"dx":-8,"dy":0},{"dx":-8,"dy":0},{"dx":-10,"dy":0},{"dx":-8,"dy":0},{"dx":-6,"dy":-1},{"dx":-9,"dy":-3},{"dx":0,"dy":0},{"dx":-8,"dy":-4},{"dx":-6,"dy":-3},{"dx":-7,"dy":-5},{"dx":-7,"dy":-7},{"dx":-2,"dy":-2},{"dx":-5,"dy":-6},{"dx":-8,"dy":-9},{"dx":-1,"dy":-1},{"dx":-5,"dy":-8},{"dx":-1,"dy":-1},{"dx":-3,"dy":-8},{"dx":0,"dy":-1},{"dx":0,"dy":-9},{"dx":0,"dy":-3},{"dx":0,"dy":-8},{"dx":0,"dy":-2},{"dx":3,"dy":-9},{"dx":1,"dy":-1},{"dx":5,"dy":-6},{"dx":8,"dy":-5},{"dx":1,"dy":-1},{"dx":9,"dy":-4},{"dx":14,"dy":-5},{"dx":8,"dy":-3},{"dx":9,"dy":-1},{"dx":10,"dy":-1},{"dx":9,"dy":0},{"dx":9,"dy":0},{"dx":8,"dy":0},{"dx":9,"dy":0},{"dx":7,"dy":0},{"dx":17,"dy":0},{"dx":9,"dy":1},{"dx":8,"dy":2},{"dx":12,"dy":1},{"dx":10,"dy":2},{"dx":13,"dy":1},{"dx":18,"dy":1},{"dx":9,"dy":1},{"dx":8,"dy":1},{"dx":11,"dy":0},{"dx":8,"dy":0},{"dx":8,"dy":0},{"dx":15,"dy":-3},{"dx":1,"dy":0},{"dx":8,"dy":-2},{"dx":8,"dy":-3},{"dx":6,"dy":-2},{"dx":1,"dy":0},{"dx":3,"dy":-2},{"dx":2,"dy":-1},{"dx":1,"dy":-1},{"dx":2,"dy":-2},{"dx":0,"dy":-2},{"dx":1,"dy":-2},{"dx":1,"dy":-3},{"dx":0,"dy":-3},{"dx":1,"dy":-9},{"dx":0,"dy":-10},{"dx":0,"dy":-1},{"dx":-3,"dy":-10},{"dx":-1,"dy":-2},{"dx":-3,"dy":-8},{"dx":-5,"dy":-7},{"dx":-1,"dy":-2},{"dx":-5,"dy":-6},{"dx":-2,"dy":-2},{"dx":-8,"dy":-5},{"dx":-6,"dy":-2},{"dx":-9,"dy":-5},{"dx":-9,"dy":-3},{"dx":-1,"dy":0},{"dx":-8,"dy":-3},{"dx":-13,"dy":-2},{"dx":-7,"dy":0},{"dx":-9,"dy":0},{"dx":-8,"dy":0},{"dx":-1,"dy":0},{"dx":-8,"dy":2},{"dx":-9,"dy":4},{"dx":-1,"dy":0},{"dx":-6,"dy":5},{"dx":-5,"dy":5},{"dx":-1,"dy":1},{"dx":-5,"dy":7},{"dx":-7,"dy":6},{"dx":-1,"dy":0},{"dx":-1,"dy":1},{"dx":-2,"dy":2},{"dx":-1,"dy":1},{"dx":0,"dy":1},{"dx":-1,"dy":2},{"dx":0,"dy":1},{"dx":0,"dy":1},{"dx":0,"dy":2},{"dx":0,"dy":2},{"dx":0,"dy":2},{"dx":2,"dy":11},{"dx":1,"dy":0},{"dx":0,"dy":1},{"dx":3,"dy":8},{"dx":4,"dy":6},{"dx":7,"dy":7},{"dx":7,"dy":8},{"dx":6,"dy":6},{"dx":6,"dy":4},{"dx":7,"dy":5},{"dx":6,"dy":5},{"dx":6,"dy":4},{"dx":5,"dy":5},{"dx":7,"dy":5},{"dx":6,"dy":4}],"trial_type":"plugin-moving-dots-2","trial_index":20,"plugin_version":"0.0.1","time_elapsed":185482},{"task":"fixation","rt":797,"stimulus":"<div style=\"font-size:60px;\">+</div>","response":" ","trial_type":"html-keyboard-response","trial_index":21,"plugin_version":"2.1.0","time_elapsed":186280},{"task":"movingdots","control_change":0,"mouse_data":[{"dx":0,"dy":0},{"dx":0,"dy":0},{"dx":0,"dy":0},{"dx":0,"dy":0},{"dx":0,"dy":0},{"dx":0,"dy":0},{"dx":0,"dy":0},{"dx":0,"dy":0},{"dx":0,"dy":0},{"dx":0,"dy":0},{"dx":0,"dy":0},{"dx":0,"dy":0},{"dx":0,"dy":0},{"dx":0,"dy":0},{"dx":0,"dy":0},{"dx":0,"dy":0},{"dx":0,"dy":0},{"dx":0,"dy":0},{"dx":0,"dy":0},{"dx":0,"dy":0},{"dx":0,"dy":0},{"dx":0,"dy":0},{"dx":0,"dy":0},{"dx":0,"dy":0},{"dx":0,"dy":0},{"dx":0,"dy":0},{"dx":0,"dy":0},{"dx":0,"dy":0},{"dx":0,"dy":0},{"dx":0,"dy":0},{"dx":0,"dy":0},{"dx":0,"dy":0},{"dx":0,"dy":0},{"dx":0,"dy":0},{"dx":0,"dy":0},{"dx":0,"dy":0},{"dx":0,"dy":0},{"dx":0,"dy":0},{"dx":0,"dy":0},{"dx":-1,"dy":1},{"dx":-2,"dy":2},{"dx":-1,"dy":2},{"dx":-1,"dy":1},{"dx":-2,"dy":2},{"dx":-1,"dy":1},{"dx":-1,"dy":1},{"dx":-2,"dy":2},{"dx":-1,"dy":0},{"dx":-2,"dy":1},{"dx":-2,"dy":1},{"dx":-2,"dy":1},{"dx":-3,"dy":1},{"dx":-5,"dy":4},{"dx":-8,"dy":3},{"dx":-2,"dy":0},{"dx":-16,"dy":4},{"dx":-7,"dy":0},{"dx":-8,"dy":1},{"dx":-8,"dy":0},{"dx":-9,"dy":0},{"dx":0,"dy":0},{"dx":-10,"dy":-2},{"dx":-6,"dy":-3},{"dx":-1,"dy":0},{"dx":-8,"dy":-5},{"dx":-8,"dy":-3},{"dx":-6,"dy":-4},{"dx":-1,"dy":-1},{"dx":-1,"dy":-2},{"dx":-1,"dy":-2},{"dx":0,"dy":-11},{"dx":0,"dy":-2},{"dx":2,"dy":-8},{"dx":6,"dy":-7},{"dx":0,"dy":-1},{"dx":7,"dy":-7},{"dx":1,"dy":-1},{"dx":5,"dy":-5},{"dx":1,"dy":-1},{"dx":6,"dy":-4},{"dx":6,"dy":-5},{"dx":1,"dy":0},{"dx":7,"dy":-2},{"dx":7,"dy":-2},{"dx":1,"dy":0},{"dx":7,"dy":-1},{"dx":7,"dy":0},{"dx":7,"dy":0},{"dx":10,"dy":0},{"dx":8,"dy":1},{"dx":7,"dy":2},{"dx":8,"dy":3},{"dx":7,"dy":2},{"dx":7,"dy":2},{"dx":13,"dy":7},{"dx":8,"dy":4},{"dx":8,"dy":5},{"dx":10,"dy":4},{"dx":8,"dy":3},{"dx":8,"dy":3},{"dx":7,"dy":3},{"dx":9,"dy":4},{"dx":9,"dy":4},{"dx":1,"dy":0},{"dx":8,"dy":2},{"dx":9,"dy":2},{"dx":9,"dy":2},{"dx":7,"dy":0},{"dx":1,"dy":0},{"dx":8,"dy":1},{"dx":11,"dy":0},{"dx":9,"dy":0},{"dx":7,"dy":-1},{"dx":8,"dy":-2},{"dx":10,"dy":-2},{"dx":9,"dy":-2},{"dx":5,"dy":-4},{"dx":1,"dy":-1},{"dx":4,"dy":-4},{"dx":7,"dy":-6},{"dx":1,"dy":-1},{"dx":4,"dy":-7},{"dx":5,"dy":-10},{"dx":5,"dy":-7},{"dx":4,"dy":-10},{"dx":0,"dy":-9},{"dx":0,"dy":-1},{"dx":0,"dy":-9},{"dx":-2,"dy":-12},{"dx":-4,"dy":-11},{"dx":-4,"dy":-9},{"dx":-11,"dy":-16},{"dx":-8,"dy":-5},{"dx":-9,"dy":-8},{"dx":-10,"dy":-6},{"dx":-22,"dy":-11},{"dx":-18,"dy":-6},{"dx":-26,"dy":-7},{"dx":-18,"dy":-4},{"dx":-21,"dy":-2},{"dx":-28,"dy":-3},{"dx":-14,"dy":0},{"dx":-13,"dy":0},{"dx":-14,"dy":2},{"dx":-11,"dy":1},{"dx":-11,"dy":3},{"dx":-15,"dy":6},{"dx":-6,"dy":4},{"dx":-5,"dy":4},{"dx":-8,"dy":4},{"dx":-7,"dy":4},{"dx":-7,"dy":5},{"dx":-7,"dy":7},{"dx":-7,"dy":7},{"dx":-5,"dy":8},{"dx":-5,"dy":8},{"dx":-3,"dy":8},{"dx":-4,"dy":9},{"dx":-3,"dy":8},{"dx":-1,"dy":1},{"dx":-3,"dy":10},{"dx":-3,"dy":10},{"dx":-4,"dy":8},{"dx":-5,"dy":8},{"dx":-9,"dy":15},{"dx":-5,"dy":6},{"dx":-7,"dy":7},{"dx":-9,"dy":7},{"dx":-9,"dy":6},{"dx":-9,"dy":5},{"dx":-18,"dy":9},{"dx":-9,"dy":2},{"dx":-9,"dy":3},{"dx":-12,"dy":2},{"dx":-11,"dy":1},{"dx":-12,"dy":2},{"dx":-17,"dy":0},{"dx":-8,"dy":0},{"dx":-6,"dy":-2},{"dx":-9,"dy":-2},{"dx":-1,"dy":0},{"dx":-6,"dy":-3},{"dx":-1,"dy":-2},{"dx":-3,"dy":-2},{"dx":-3,"dy":-8},{"dx":-1,"dy":-2},{"dx":0,"dy":-9},{"dx":0,"dy":-10},{"dx":1,"dy":-1},{"dx":2,"dy":-11},{"dx":3,"dy":-9},{"dx":5,"dy":-10},{"dx":3,"dy":-5},{"dx":0,"dy":-1},{"dx":4,"dy":-7},{"dx":1,"dy":-2},{"dx":5,"dy":-6},{"dx":1,"dy":-2},{"dx":7,"dy":-6},{"dx":7,"dy":-4},{"dx":6,"dy":-4},{"dx":6,"dy":-2},{"dx":2,"dy":0},{"dx":9,"dy":-2},{"dx":16,"dy":0},{"dx":7,"dy":1},{"dx":9,"dy":2},{"dx":10,"dy":2},{"dx":1,"dy":0},{"dx":7,"dy":3},{"dx":8,"dy":3},{"dx":7,"dy":2},{"dx":7,"dy":4},{"dx":7,"dy":3},{"dx":8,"dy":4},{"dx":6,"dy":4},{"dx":12,"dy":11},{"dx":1,"dy":0},{"dx":7,"dy":7},{"dx":0,"dy":1},{"dx":4,"dy":7},{"dx":0,"dy":0},{"dx":2,"dy":4},{"dx":2,"dy":8},{"dx":1,"dy":1},{"dx":1,"dy":2},{"dx":3,"dy":7},{"dx":5,"dy":5},{"dx":9,"dy":6},{"dx":9,"dy":6},{"dx":9,"dy":4},{"dx":17,"dy":9},{"dx":8,"dy":3},{"dx":7,"dy":4},{"dx":6,"dy":2},{"dx":11,"dy":3},{"dx":1,"dy":0},{"dx":9,"dy":2},{"dx":7,"dy":2},{"dx":6,"dy":2},{"dx":10,"dy":1},{"dx":0,"dy":0},{"dx":8,"dy":1},{"dx":8,"dy":0},{"dx":7,"dy":0},{"dx":7,"dy":-1},{"dx":9,"dy":-2},{"dx":8,"dy":-3},{"dx":1,"dy":-1},{"dx":7,"dy":-3},{"dx":5,"dy":-5},{"dx":1,"dy":-1},{"dx":6,"dy":-6},{"dx":0,"dy":-2},{"dx":1,"dy":-3},{"dx":2,"dy":-9},{"dx":-1,"dy":-9},{"dx":0,"dy":-1},{"dx":-3,"dy":-8},{"dx":-1,"dy":-2},{"dx":-1,"dy":-2},{"dx":-3,"dy":-5},{"dx":-1,"dy":-2},{"dx":-4,"dy":-4},{"dx":-10,"dy":-4},{"dx":-8,"dy":-2},{"dx":-7,"dy":0},{"dx":-8,"dy":0},{"dx":-9,"dy":0},{"dx":-11,"dy":0},{"dx":-14,"dy":0},{"dx":-8,"dy":0},{"dx":-1,"dy":0},{"dx":-8,"dy":2},{"dx":-3,"dy":1},{"dx":-8,"dy":5},{"dx":0,"dy":1},{"dx":-1,"dy":2},{"dx":-1,"dy":2},{"dx":0,"dy":8},{"dx":0,"dy":3},{"dx":1,"dy":8},{"dx":0,"dy":1},{"dx":4,"dy":6},{"dx":4,"dy":6},{"dx":1,"dy":1},{"dx":5,"dy":6},{"dx":4,"dy":6},{"dx":1,"dy":2},{"dx":3,"dy":6},{"dx":1,"dy":2},{"dx":2,"dy":9},{"dx":-3,"dy":10},{"dx":0,"dy":0},{"dx":-5,"dy":8},{"dx":-2,"dy":1},{"dx":-6,"dy":5},{"dx":-2,"dy":1},{"dx":-7,"dy":4},{"dx":-8,"dy":2},{"dx":-8,"dy":1},{"dx":-17,"dy":2},{"dx":-8,"dy":1},{"dx":-7,"dy":0},{"dx":-10,"dy":0},{"dx":-8,"dy":-1},{"dx":-7,"dy":-1},{"dx":-9,"dy":-2},{"dx":-8,"dy":-2},{"dx":-8,"dy":-3},{"dx":-6,"dy":-4},{"dx":0,"dy":-1},{"dx":-4,"dy":-6},{"dx":-5,"dy":-9},{"dx":-4,"dy":-8},{"dx":0,"dy":0},{"dx":-5,"dy":-9},{"dx":0,"dy":-2},{"dx":-1,"dy":-2},{"dx":0,"dy":-4},{"dx":0,"dy":-1},{"dx":0,"dy":-3},{"dx":6,"dy":-8},{"dx":1,"dy":0},{"dx":6,"dy":-2},{"dx":7,"dy":-2},{"dx":2,"dy":-1},{"dx":7,"dy":-1},{"dx":3,"dy":0},{"dx":7,"dy":0},{"dx":0,"dy":0},{"dx":7,"dy":2},{"dx":1,"dy":0},{"dx":7,"dy":3},{"dx":8,"dy":4},{"dx":9,"dy":4},{"dx":7,"dy":3},{"dx":7,"dy":5},{"dx":14,"dy":7},{"dx":10,"dy":3},{"dx":8,"dy":4},{"dx":9,"dy":2},{"dx":9,"dy":4},{"dx":9,"dy":2},{"dx":15,"dy":5},{"dx":9,"dy":2},{"dx":11,"dy":1},{"dx":9,"dy":1},{"dx":8,"dy":0},{"dx":11,"dy":1},{"dx":6,"dy":0},{"dx":11,"dy":0},{"dx":8,"dy":0},{"dx":10,"dy":-3},{"dx":0,"dy":-1},{"dx":7,"dy":-3},{"dx":2,"dy":-1},{"dx":7,"dy":-4},{"dx":0,"dy":0},{"dx":7,"dy":-4},{"dx":2,"dy":-1},{"dx":6,"dy":-3},{"dx":7,"dy":-4},{"dx":0,"dy":0},{"dx":7,"dy":-4},{"dx":7,"dy":-4},{"dx":7,"dy":-4},{"dx":2,"dy":-1},{"dx":6,"dy":-4},{"dx":8,"dy":-6},{"dx":6,"dy":-4},{"dx":15,"dy":-10},{"dx":1,"dy":-2},{"dx":6,"dy":-5},{"dx":13,"dy":-12},{"dx":1,"dy":0},{"dx":5,"dy":-4},{"dx":7,"dy":-5},{"dx":1,"dy":-1},{"dx":2,"dy":-1},{"dx":5,"dy":-3},{"dx":2,"dy":-1},{"dx":8,"dy":-2},{"dx":2,"dy":-1},{"dx":7,"dy":-1},{"dx":0,"dy":0},{"dx":8,"dy":0},{"dx":6,"dy":2},{"dx":2,"dy":0},{"dx":8,"dy":4},{"dx":7,"dy":2},{"dx":9,"dy":6},{"dx":6,"dy":4},{"dx":6,"dy":4},{"dx":8,"dy":5},{"dx":13,"dy":10},{"dx":1,"dy":1},{"dx":5,"dy":6},{"dx":6,"dy":6},{"dx":6,"dy":6},{"dx":0,"dy":1},{"dx":5,"dy":6},{"dx":2,"dy":1},{"dx":6,"dy":6},{"dx":2,"dy":1},{"dx":2,"dy":1},{"dx":6,"dy":2},{"dx":2,"dy":0},{"dx":7,"dy":1},{"dx":1,"dy":0},{"dx":7,"dy":0},{"dx":2,"dy":0},{"dx":1,"dy":0},{"dx":3,"dy":0},{"dx":1,"dy":-1},{"dx":2,"dy":0},{"dx":2,"dy":-2},{"dx":1,"dy":-1},{"dx":2,"dy":-2},{"dx":2,"dy":-2},{"dx":2,"dy":-2},{"dx":5,"dy":-7},{"dx":2,"dy":-1},{"dx":1,"dy":-2},{"dx":5,"dy":-7},{"dx":1,"dy":-1},{"dx":4,"dy":-9},{"dx":1,"dy":-1},{"dx":4,"dy":-8},{"dx":1,"dy":-1},{"dx":1,"dy":-1},{"dx":0,"dy":-3},{"dx":1,"dy":-1},{"dx":0,"dy":0},{"dx":0,"dy":-1},{"dx":0,"dy":0},{"dx":0,"dy":0},{"dx":0,"dy":-1},{"dx":0,"dy":0},{"dx":0,"dy":0},{"dx":0,"dy":-1},{"dx":1,"dy":0},{"dx":0,"dy":-2},{"dx":0,"dy":-3},{"dx":0,"dy":-1},{"dx":0,"dy":-2},{"dx":0,"dy":-2},{"dx":0,"dy":0},{"dx":0,"dy":-2},{"dx":-8,"dy":-8},{"dx":-6,"dy":-4},{"dx":-7,"dy":-3},{"dx":-7,"dy":-2}],"trial_type":"plugin-moving-dots-2","trial_index":22,"plugin_version":"0.0.1","time_elapsed":193797},{"task":"fixation","rt":657,"stimulus":"<div style=\"font-size:60px;\">+</div>","response":" ","trial_type":"html-keyboard-response","trial_index":23,"plugin_version":"2.1.0","time_elapsed":194456},{"task":"movingdots","control_change":0,"mouse_data":[{"dx":0,"dy":0},{"dx":0,"dy":0},{"dx":0,"dy":0},{"dx":0,"dy":0},{"dx":0,"dy":0},{"dx":0,"dy":0},{"dx":0,"dy":0},{"dx":0,"dy":0},{"dx":0,"dy":0},{"dx":0,"dy":0},{"dx":0,"dy":0},{"dx":0,"dy":0},{"dx":0,"dy":0},{"dx":0,"dy":0},{"dx":0,"dy":0},{"dx":0,"dy":0},{"dx":0,"dy":0},{"dx":0,"dy":0},{"dx":-2,"dy":0},{"dx":-1,"dy":0},{"dx":0,"dy":0},{"dx":-1,"dy":1},{"dx":-1,"dy":0},{"dx":-2,"dy":0},{"dx":-1,"dy":1},{"dx":0,"dy":0},{"dx":-2,"dy":0},{"dx":-1,"dy":0},{"dx":0,"dy":0},{"dx":-1,"dy":1},{"dx":-1,"dy":0},{"dx":-1,"dy":0},{"dx":-1,"dy":0},{"dx":-1,"dy":0},{"dx":-1,"dy":0},{"dx":-1,"dy":1},{"dx":-1,"dy":1},{"dx":-2,"dy":0},{"dx":-1,"dy":1},{"dx":-3,"dy":1},{"dx":-1,"dy":0},{"dx":-3,"dy":1},{"dx":-2,"dy":1},{"dx":-2,"dy":0},{"dx":-2,"dy":0},{"dx":-3,"dy":1},{"dx":-2,"dy":1},{"dx":-2,"dy":0},{"dx":-2,"dy":1},{"dx":-2,"dy":0},{"dx":-2,"dy":0},{"dx":-3,"dy":0},{"dx":-7,"dy":1},{"dx":-2,"dy":0},{"dx":-9,"dy":0},{"dx":0,"dy":0},{"dx":-7,"dy":0},{"dx":-9,"dy":-1},{"dx":-9,"dy":-3},{"dx":-1,"dy":0},{"dx":-8,"dy":-2},{"dx":-9,"dy":-2},{"dx":-9,"dy":-3},{"dx":-8,"dy":-5},{"dx":-9,"dy":-2},{"dx":-9,"dy":-3},{"dx":-8,"dy":-3},{"dx":-2,"dy":-1},{"dx":-5,"dy":-4},{"dx":-8,"dy":-4},{"dx":0,"dy":-1},{"dx":-7,"dy":-5},{"dx":-1,"dy":-1},{"dx":-1,"dy":-1},{"dx":-2,"dy":-2},{"dx":-1,"dy":-4},{"dx":-1,"dy":-2},{"dx":0,"dy":-2},{"dx":0,"dy":-4},{"dx":1,"dy":-2},{"dx":1,"dy":-3},{"dx":0,"dy":-3},{"dx":0,"dy":-2},{"dx":0,"dy":-1},{"dx":1,"dy":-2},{"dx":1,"dy":-1},{"dx":1,"dy":-2},{"dx":7,"dy":-6},{"dx":1,"dy":0},{"dx":2,"dy":-1},{"dx":6,"dy":-2},{"dx":8,"dy":0},{"dx":1,"dy":0},{"dx":8,"dy":0},{"dx":2,"dy":0},{"dx":8,"dy":0},{"dx":2,"dy":0},{"dx":6,"dy":0},{"dx":2,"dy":0},{"dx":8,"dy":0},{"dx":9,"dy":0},{"dx":1,"dy":0},{"dx":7,"dy":0},{"dx":1,"dy":0},{"dx":2,"dy":0},{"dx":3,"dy":0},{"dx":2,"dy":0},{"dx":9,"dy":3},{"dx":0,"dy":0},{"dx":2,"dy":1},{"dx":2,"dy":1},{"dx":2,"dy":1},{"dx":3,"dy":2},{"dx":5,"dy":4},{"dx":0,"dy":0},{"dx":2,"dy":1},{"dx":1,"dy":1},{"dx":6,"dy":5},{"dx":1,"dy":2},{"dx":1,"dy":1},{"dx":5,"dy":5},{"dx":2,"dy":1},{"dx":2,"dy":1},{"dx":5,"dy":4},{"dx":1,"dy":1},{"dx":6,"dy":4},{"dx":7,"dy":5},{"dx":0,"dy":1},{"dx":6,"dy":3},{"dx":6,"dy":4},{"dx":2,"dy":1},{"dx":4,"dy":3},{"dx":8,"dy":5},{"dx":1,"dy":0},{"dx":6,"dy":1},{"dx":7,"dy":3},{"dx":2,"dy":0},{"dx":7,"dy":2},{"dx":7,"dy":2},{"dx":1,"dy":0},{"dx":9,"dy":2},{"dx":8,"dy":2},{"dx":9,"dy":1},{"dx":5,"dy":1},{"dx":2,"dy":0},{"dx":7,"dy":1},{"dx":1,"dy":0},{"dx":2,"dy":0},{"dx":6,"dy":0},{"dx":1,"dy":-1},{"dx":2,"dy":-1},{"dx":1,"dy":-1},{"dx":0,"dy":0},{"dx":2,"dy":-1},{"dx":0,"dy":0},{"dx":0,"dy":0},{"dx":1,"dy":-1},{"dx":1,"dy":-1},{"dx":1,"dy":-2},{"dx":1,"dy":-1},{"dx":1,"dy":-1},{"dx":0,"dy":-2},{"dx":1,"dy":-1},{"dx":1,"dy":-2},{"dx":1,"dy":0},{"dx":0,"dy":-1},{"dx":1,"dy":-2},{"dx":0,"dy":-2},{"dx":0,"dy":-2},{"dx":1,"dy":-2},{"dx":0,"dy":-2},{"dx":0,"dy":-2},{"dx":0,"dy":-3},{"dx":0,"dy":-2},{"dx":0,"dy":-1},{"dx":-2,"dy":-3},{"dx":-7,"dy":-7},{"dx":0,"dy":-1},{"dx":-3,"dy":-2},{"dx":-1,"dy":0},{"dx":-7,"dy":-4},{"dx":-2,"dy":-1},{"dx":-8,"dy":0},{"dx":-1,"dy":0},{"dx":-9,"dy":0},{"dx":-1,"dy":0},{"dx":-7,"dy":0},{"dx":-3,"dy":0},{"dx":-7,"dy":2},{"dx":-2,"dy":0},{"dx":-3,"dy":1},{"dx":-3,"dy":1},{"dx":-2,"dy":1},{"dx":-3,"dy":2},{"dx":-2,"dy":1},{"dx":-1,"dy":2},{"dx":-5,"dy":6},{"dx":0,"dy":0},{"dx":-1,"dy":2},{"dx":-2,"dy":2},{"dx":-1,"dy":2},{"dx":-1,"dy":2},{"dx":-4,"dy":6},{"dx":0,"dy":2},{"dx":-1,"dy":2},{"dx":-2,"dy":3},{"dx":-1,"dy":2},{"dx":-2,"dy":2},{"dx":-2,"dy":2},{"dx":-4,"dy":4},{"dx":-2,"dy":1},{"dx":-8,"dy":4},{"dx":-7,"dy":3},{"dx":-7,"dy":3},{"dx":-7,"dy":3},{"dx":-2,"dy":0},{"dx":-7,"dy":3},{"dx":-2,"dy":0},{"dx":-7,"dy":3},{"dx":-2,"dy":1},{"dx":-8,"dy":2},{"dx":-7,"dy":0},{"dx":-8,"dy":0},{"dx":-1,"dy":0},{"dx":-9,"dy":0},{"dx":-7,"dy":-2},{"dx":-6,"dy":-2},{"dx":-8,"dy":-3},{"dx":-1,"dy":0},{"dx":-7,"dy":-4},{"dx":-8,"dy":-5},{"dx":-1,"dy":-1},{"dx":-2,"dy":-2},{"dx":-4,"dy":-5},{"dx":-5,"dy":-8},{"dx":-1,"dy":-1},{"dx":-5,"dy":-8},{"dx":-2,"dy":-3},{"dx":-2,"dy":-10},{"dx":0,"dy":-2},{"dx":-1,"dy":-7},{"dx":0,"dy":0},{"dx":0,"dy":-4},{"dx":1,"dy":-3},{"dx":5,"dy":-5},{"dx":1,"dy":-2},{"dx":2,"dy":-1},{"dx":1,"dy":-1},{"dx":7,"dy":-2},{"dx":2,"dy":-1},{"dx":6,"dy":-1},{"dx":10,"dy":0},{"dx":1,"dy":0},{"dx":1,"dy":0},{"dx":8,"dy":2},{"dx":7,"dy":2},{"dx":2,"dy":0},{"dx":8,"dy":2},{"dx":6,"dy":3},{"dx":1,"dy":0},{"dx":7,"dy":3},{"dx":7,"dy":3},{"dx":0,"dy":1},{"dx":7,"dy":4},{"dx":1,"dy":1},{"dx":6,"dy":4},{"dx":1,"dy":2},{"dx":5,"dy":5},{"dx":0,"dy":1},{"dx":5,"dy":8},{"dx":0,"dy":2},{"dx":4,"dy":6},{"dx":5,"dy":9},{"dx":0,"dy":0},{"dx":1,"dy":2},{"dx":4,"dy":8},{"dx":3,"dy":8},{"dx":0,"dy":2},{"dx":4,"dy":9},{"dx":2,"dy":7},{"dx":3,"dy":8},{"dx":4,"dy":10},{"dx":2,"dy":8},{"dx":0,"dy":2},{"dx":5,"dy":8},{"dx":4,"dy":11},{"dx":4,"dy":10},{"dx":1,"dy":2},{"dx":6,"dy":8},{"dx":5,"dy":6},{"dx":6,"dy":6},{"dx":5,"dy":5},{"dx":0,"dy":0},{"dx":6,"dy":3},{"dx":7,"dy":3},{"dx":8,"dy":1},{"dx":1,"dy":0},{"dx":6,"dy":0},{"dx":2,"dy":0},{"dx":8,"dy":-2},{"dx":7,"dy":-3},{"dx":1,"dy":-1},{"dx":5,"dy":-6},{"dx":7,"dy":-6},{"dx":0,"dy":0},{"dx":7,"dy":-8},{"dx":1,"dy":-2},{"dx":1,"dy":-1},{"dx":5,"dy":-7},{"dx":0,"dy":-2},{"dx":4,"dy":-7},{"dx":1,"dy":-2},{"dx":3,"dy":-7},{"dx":0,"dy":-2},{"dx":2,"dy":-10},{"dx":0,"dy":-2},{"dx":1,"dy":-8},{"dx":0,"dy":-3},{"dx":0,"dy":-8},{"dx":0,"dy":-2},{"dx":0,"dy":-9},{"dx":0,"dy":-2},{"dx":0,"dy":-10},{"dx":0,"dy":0},{"dx":0,"dy":-10},{"dx":0,"dy":-1},{"dx":0,"dy":-3},{"dx":0,"dy":-4},{"dx":-1,"dy":-3},{"dx":-1,"dy":-2},{"dx":-4,"dy":-8},{"dx":-2,"dy":-1},{"dx":-7,"dy":-5},{"dx":-2,"dy":0},{"dx":-2,"dy":-1},{"dx":-5,"dy":-2},{"dx":-3,"dy":-1},{"dx":-3,"dy":-1},{"dx":-6,"dy":-1},{"dx":-2,"dy":0},{"dx":-3,"dy":0},{"dx":-8,"dy":0},{"dx":-2,"dy":0},{"dx":-7,"dy":0},{"dx":-1,"dy":0},{"dx":-4,"dy":0},{"dx":-2,"dy":0},{"dx":-6,"dy":0},{"dx":-3,"dy":0},{"dx":-8,"dy":0},{"dx":0,"dy":1},{"dx":-9,"dy":2},{"dx":-1,"dy":0},{"dx":-8,"dy":3},{"dx":-2,"dy":1},{"dx":-9,"dy":4},{"dx":-6,"dy":3},{"dx":-7,"dy":4},{"dx":-10,"dy":6},{"dx":-2,"dy":0},{"dx":-8,"dy":5},{"dx":-9,"dy":6},{"dx":-8,"dy":4},{"dx":-2,"dy":1},{"dx":-10,"dy":4},{"dx":-9,"dy":6},{"dx":-8,"dy":2},{"dx":-9,"dy":1},{"dx":-9,"dy":2},{"dx":-7,"dy":2},{"dx":-2,"dy":0},{"dx":-7,"dy":1},{"dx":-2,"dy":0},{"dx":-9,"dy":0},{"dx":-2,"dy":0},{"dx":-7,"dy":0},{"dx":-2,"dy":-1},{"dx":-3,"dy":0},{"dx":-7,"dy":-1},{"dx":-2,"dy":0},{"dx":-3,"dy":0},{"dx":-3,"dy":0},{"dx":-3,"dy":-1},{"dx":-1,"dy":0},{"dx":-2,"dy":0},{"dx":-2,"dy":0},{"dx":-1,"dy":-1},{"dx":-1,"dy":0},{"dx":-3,"dy":0},{"dx":-1,"dy":0},{"dx":-2,"dy":-1},{"dx":-2,"dy":0},{"dx":-2,"dy":-1},{"dx":-2,"dy":0},{"dx":-8,"dy":-1},{"dx":-7,"dy":-1},{"dx":-1,"dy":0},{"dx":-8,"dy":0},{"dx":-8,"dy":0},{"dx":-2,"dy":0},{"dx":-8,"dy":2},{"dx":-2,"dy":0},{"dx":-6,"dy":3},{"dx":-2,"dy":0},{"dx":-2,"dy":0},{"dx":-7,"dy":3},{"dx":-8,"dy":3},{"dx":-1,"dy":0},{"dx":-1,"dy":1},{"dx":-3,"dy":1},{"dx":-1,"dy":2},{"dx":-1,"dy":1},{"dx":-1,"dy":2},{"dx":-1,"dy":1},{"dx":-1,"dy":2},{"dx":-1,"dy":2},{"dx":-1,"dy":2},{"dx":0,"dy":1},{"dx":0,"dy":4},{"dx":0,"dy":9},{"dx":0,"dy":0},{"dx":0,"dy":3},{"dx":0,"dy":2},{"dx":0,"dy":2},{"dx":0,"dy":3},{"dx":0,"dy":2},{"dx":0,"dy":1},{"dx":0,"dy":3},{"dx":0,"dy":2},{"dx":0,"dy":3},{"dx":0,"dy":4},{"dx":0,"dy":1},{"dx":0,"dy":3},{"dx":0,"dy":2},{"dx":0,"dy":4},{"dx":0,"dy":2},{"dx":-2,"dy":2},{"dx":-4,"dy":8},{"dx":-1,"dy":2},{"dx":-3,"dy":6},{"dx":-2,"dy":1},{"dx":-1,"dy":2},{"dx":-1,"dy":1},{"dx":-2,"dy":3},{"dx":-1,"dy":2},{"dx":-1,"dy":2},{"dx":-4,"dy":7},{"dx":-2,"dy":1},{"dx":-5,"dy":5},{"dx":-3,"dy":2},{"dx":-6,"dy":4},{"dx":-1,"dy":1},{"dx":-3,"dy":2}],"trial_type":"plugin-moving-dots-2","trial_index":24,"plugin_version":"0.0.1","time_elapsed":201964},{"task":"fixation","rt":794,"stimulus":"<div style=\"font-size:60px;\">+</div>","response":" ","trial_type":"html-keyboard-response","trial_index":25,"plugin_version":"2.1.0","time_elapsed":202760},{"task":"movingdots","control_change":0,"mouse_data":[{"dx":0,"dy":0},{"dx":0,"dy":0},{"dx":0,"dy":0},{"dx":0,"dy":0},{"dx":0,"dy":0},{"dx":0,"dy":0},{"dx":0,"dy":0},{"dx":0,"dy":0},{"dx":0,"dy":0},{"dx":0,"dy":0},{"dx":0,"dy":0},{"dx":0,"dy":0},{"dx":0,"dy":0},{"dx":0,"dy":0},{"dx":0,"dy":0},{"dx":0,"dy":1},{"dx":-1,"dy":1},{"dx":-3,"dy":1},{"dx":-1,"dy":1},{"dx":-1,"dy":1},{"dx":-2,"dy":2},{"dx":-1,"dy":1},{"dx":-2,"dy":2},{"dx":-2,"dy":1},{"dx":-1,"dy":1},{"dx":-1,"dy":1},{"dx":-2,"dy":2},{"dx":0,"dy":1},{"dx":-1,"dy":1},{"dx":0,"dy":1},{"dx":-1,"dy":1},{"dx":0,"dy":0},{"dx":0,"dy":0},{"dx":-1,"dy":1},{"dx":-1,"dy":1},{"dx":-1,"dy":2},{"dx":-1,"dy":1},{"dx":-2,"dy":1},{"dx":-1,"dy":2},{"dx":-2,"dy":0},{"dx":-2,"dy":2},{"dx":-2,"dy":1},{"dx":-2,"dy":2},{"dx":-1,"dy":1},{"dx":-3,"dy":2},{"dx":-1,"dy":1},{"dx":-2,"dy":2},{"dx":-2,"dy":2},{"dx":-2,"dy":2},{"dx":-1,"dy":1},{"dx":-2,"dy":1},{"dx":0,"dy":2},{"dx":-1,"dy":1},{"dx":-2,"dy":1},{"dx":-1,"dy":2},{"dx":-1,"dy":2},{"dx":-2,"dy":2},{"dx":-2,"dy":1},{"dx":-4,"dy":4},{"dx":-2,"dy":2},{"dx":-6,"dy":6},{"dx":0,"dy":1},{"dx":-7,"dy":6},{"dx":-6,"dy":5},{"dx":0,"dy":0},{"dx":-7,"dy":5},{"dx":-1,"dy":2},{"dx":-5,"dy":4},{"dx":-2,"dy":1},{"dx":-6,"dy":5},{"dx":-1,"dy":1},{"dx":-7,"dy":6},{"dx":-2,"dy":1},{"dx":-6,"dy":3},{"dx":-6,"dy":6},{"dx":-8,"dy":6},{"dx":-1,"dy":0},{"dx":-7,"dy":4},{"dx":-7,"dy":5},{"dx":-8,"dy":6},{"dx":-1,"dy":0},{"dx":-8,"dy":4},{"dx":-6,"dy":3},{"dx":-8,"dy":4},{"dx":-6,"dy":4},{"dx":-1,"dy":0},{"dx":-2,"dy":0},{"dx":-7,"dy":3},{"dx":-2,"dy":1},{"dx":-2,"dy":1},{"dx":-7,"dy":4},{"dx":-2,"dy":0},{"dx":-5,"dy":4},{"dx":-7,"dy":4},{"dx":-1,"dy":1},{"dx":-7,"dy":3},{"dx":-7,"dy":3},{"dx":-8,"dy":2},{"dx":-1,"dy":0},{"dx":-6,"dy":2},{"dx":-2,"dy":1},{"dx":-2,"dy":1},{"dx":-7,"dy":3},{"dx":-2,"dy":1},{"dx":-6,"dy":2},{"dx":-3,"dy":0},{"dx":-8,"dy":2},{"dx":0,"dy":0},{"dx":-4,"dy":1},{"dx":-2,"dy":0},{"dx":-2,"dy":0},{"dx":-2,"dy":0},{"dx":-2,"dy":0},{"dx":-1,"dy":0},{"dx":-2,"dy":0},{"dx":-2,"dy":0},{"dx":-2,"dy":0},{"dx":-2,"dy":-1},{"dx":-2,"dy":-1},{"dx":-2,"dy":-1},{"dx":-6,"dy":-5},{"dx":-6,"dy":-6},{"dx":-2,"dy":-2},{"dx":-5,"dy":-7},{"dx":-3,"dy":-6},{"dx":-4,"dy":-11},{"dx":-3,"dy":-11},{"dx":0,"dy":-10},{"dx":-2,"dy":-8},{"dx":0,"dy":-9},{"dx":0,"dy":-11},{"dx":1,"dy":-10},{"dx":1,"dy":-10},{"dx":4,"dy":-11},{"dx":3,"dy":-9},{"dx":3,"dy":-10},{"dx":2,"dy":-8},{"dx":4,"dy":-9},{"dx":3,"dy":-11},{"dx":4,"dy":-10},{"dx":0,"dy":-2},{"dx":5,"dy":-17},{"dx":2,"dy":-9},{"dx":0,"dy":-2},{"dx":2,"dy":-10},{"dx":2,"dy":-11},{"dx":2,"dy":-9},{"dx":0,"dy":-1},{"dx":3,"dy":-9},{"dx":1,"dy":-3},{"dx":4,"dy":-9},{"dx":3,"dy":-7},{"dx":3,"dy":-6},{"dx":1,"dy":-1},{"dx":1,"dy":-3},{"dx":3,"dy":-8},{"dx":0,"dy":-2},{"dx":2,"dy":-3},{"dx":1,"dy":-3},{"dx":4,"dy":-7},{"dx":1,"dy":-2},{"dx":1,"dy":-1},{"dx":3,"dy":-7},{"dx":1,"dy":-2},{"dx":6,"dy":-6},{"dx":1,"dy":-1},{"dx":7,"dy":-5},{"dx":2,"dy":-1},{"dx":8,"dy":-3},{"dx":8,"dy":-4},{"dx":0,"dy":-1},{"dx":8,"dy":-2},{"dx":8,"dy":-3},{"dx":2,"dy":0},{"dx":7,"dy":-1},{"dx":9,"dy":-2},{"dx":8,"dy":-1},{"dx":1,"dy":-1},{"dx":8,"dy":0},{"dx":2,"dy":0},{"dx":7,"dy":-1},{"dx":2,"dy":0},{"dx":6,"dy":0},{"dx":1,"dy":0},{"dx":8,"dy":0},{"dx":8,"dy":0},{"dx":1,"dy":0},{"dx":8,"dy":0},{"dx":7,"dy":0},{"dx":7,"dy":0},{"dx":2,"dy":0},{"dx":8,"dy":0},{"dx":7,"dy":0},{"dx":11,"dy":1},{"dx":8,"dy":2},{"dx":7,"dy":1},{"dx":7,"dy":0},{"dx":7,"dy":0},{"dx":9,"dy":2},{"dx":9,"dy":0},{"dx":10,"dy":0},{"dx":1,"dy":0},{"dx":8,"dy":1},{"dx":10,"dy":0},{"dx":8,"dy":0},{"dx":8,"dy":0},{"dx":0,"dy":0},{"dx":9,"dy":2},{"dx":8,"dy":2},{"dx":1,"dy":0},{"dx":7,"dy":1},{"dx":17,"dy":2},{"dx":7,"dy":1},{"dx":2,"dy":1},{"dx":11,"dy":1},{"dx":7,"dy":2},{"dx":1,"dy":0},{"dx":8,