[{"success":true,"rt":16493,"trial_type":"fullscreen","trial_index":0,"plugin_version":"2.1.0","time_elapsed":17504},{"task":"fixation","rt":2535,"stimulus":"<div style=\"font-size:60px;\">+</div>","response":" ","trial_type":"html-keyboard-response","trial_index":1,"plugin_version":"2.1.0","time_elapsed":20042},{"task":"movingdots","control_change":0,"mouse_data":[{"dx":0,"dy":0},{"dx":0,"dy":0},{"dx":0,"dy":0},{"dx":0,"dy":0},{"dx":0,"dy":0},{"dx":0,"dy":0},{"dx":0,"dy":0},{"dx":0,"dy":0},{"dx":0,"dy":0},{"dx":0,"dy":0},{"dx":0,"dy":0},{"dx":0,"dy":0},{"dx":0,"dy":0},{"dx":0,"dy":0},{"dx":0,"dy":0},{"dx":0,"dy":0},{"dx":0,"dy":0},{"dx":0,"dy":0},{"dx":0,"dy":-1},{"dx":1,"dy":-1},{"dx":0,"dy":-1},{"dx":1,"dy":-6},{"dx":1,"dy":-6},{"dx":0,"dy":-5},{"dx":1,"dy":-7},{"dx":0,"dy":0},{"dx":0,"dy":-2},{"dx":0,"dy":-1},{"dx":0,"dy":-1},{"dx":0,"dy":-1},{"dx":0,"dy":-2},{"dx":0,"dy":0},{"dx":-3,"dy":-4},{"dx":-6,"dy":0},{"dx":-6,"dy":0},{"dx":-7,"dy":0},{"dx":-15,"dy":3},{"dx":-7,"dy":1},{"dx":-5,"dy":2},{"dx":-5,"dy":3},{"dx":-3,"dy":3},{"dx":-5,"dy":4},{"dx":-7,"dy":7},{"dx":-3,"dy":3},{"dx":-3,"dy":4},{"dx":-4,"dy":5},{"dx":0,"dy":1},{"dx":-2,"dy":5},{"dx":0,"dy":1},{"dx":0,"dy":5},{"dx":1,"dy":1},{"dx":8,"dy":9},{"dx":5,"dy":3},{"dx":7,"dy":4},{"dx":15,"dy":6},{"dx":10,"dy":4},{"dx":8,"dy":5},{"dx":13,"dy":8},{"dx":5,"dy":2},{"dx":7,"dy":2},{"dx":9,"dy":5},{"dx":4,"dy":2},{"dx":6,"dy":2},{"dx":6,"dy":1},{"dx":6,"dy":1},{"dx":5,"dy":1},{"dx":5,"dy":1},{"dx":5,"dy":0},{"dx":5,"dy":-1},{"dx":8,"dy":-4},{"dx":5,"dy":-3},{"dx":3,"dy":-3},{"dx":4,"dy":-5},{"dx":2,"dy":-4},{"dx":3,"dy":-5},{"dx":5,"dy":-13},{"dx":1,"dy":-5},{"dx":1,"dy":-6},{"dx":0,"dy":-1},{"dx":1,"dy":-5},{"dx":0,"dy":-1},{"dx":3,"dy":-6},{"dx":0,"dy":-1},{"dx":3,"dy":-6},{"dx":5,"dy":-9},{"dx":5,"dy":-7},{"dx":4,"dy":-4},{"dx":5,"dy":-6},{"dx":5,"dy":-3},{"dx":6,"dy":-3},{"dx":13,"dy":-4},{"dx":6,"dy":-1},{"dx":5,"dy":0},{"dx":4,"dy":1},{"dx":5,"dy":4},{"dx":3,"dy":5},{"dx":6,"dy":15},{"dx":1,"dy":6},{"dx":1,"dy":7},{"dx":-1,"dy":9},{"dx":-1,"dy":7},{"dx":-3,"dy":5},{"dx":-12,"dy":13},{"dx":-13,"dy":7},{"dx":-15,"dy":5},{"dx":-34,"dy":7},{"dx":-14,"dy":4},{"dx":-16,"dy":2},{"dx":-23,"dy":2},{"dx":-14,"dy":0},{"dx":-15,"dy":-2},{"dx":-20,"dy":-4},{"dx":-9,"dy":-5},{"dx":-12,"dy":-5},{"dx":-14,"dy":-12},{"dx":-8,"dy":-8},{"dx":-6,"dy":-8},{"dx":-3,"dy":-6},{"dx":-2,"dy":-8},{"dx":-1,"dy":-8},{"dx":0,"dy":-14},{"dx":4,"dy":-16},{"dx":6,"dy":-14},{"dx":7,"dy":-16},{"dx":10,"dy":-19},{"dx":2,"dy":-4},{"dx":4,"dy":-7},{"dx":6,"dy":-7},{"dx":5,"dy":-3},{"dx":5,"dy":-2},{"dx":14,"dy":-3},{"dx":9,"dy":-3},{"dx":10,"dy":-1},{"dx":16,"dy":-1},{"dx":10,"dy":0},{"dx":8,"dy":2},{"dx":8,"dy":2},{"dx":8,"dy":2},{"dx":6,"dy":2},{"dx":8,"dy":7},{"dx":5,"dy":5},{"dx":4,"dy":5},{"dx":6,"dy":7},{"dx":5,"dy":7},{"dx":4,"dy":5},{"dx":7,"dy":10},{"dx":3,"dy":5},{"dx":5,"dy":6},{"dx":3,"dy":5},{"dx":5,"dy":5},{"dx":5,"dy":4},{"dx":13,"dy":7},{"dx":7,"dy":3},{"dx":5,"dy":1},{"dx":5,"dy":0},{"dx":6,"dy":0},{"dx":7,"dy":-2},{"dx":13,"dy":-5},{"dx":6,"dy":-3},{"dx":5,"dy":-4},{"dx":7,"dy":-4},{"dx":9,"dy":-6},{"dx":8,"dy":-6},{"dx":17,"dy":-11},{"dx":9,"dy":-6},{"dx":4,"dy":-4},{"dx":8,"dy":-8},{"dx":1,"dy":-1},{"dx":2,"dy":-3},{"dx":1,"dy":-6},{"dx":-1,"dy":-6},{"dx":-7,"dy":-10},{"dx":-17,"dy":-17},{"dx":-18,"dy":-10},{"dx":-17,"dy":-9},{"dx":-22,"dy":-9},{"dx":-32,"dy":-5},{"dx":-23,"dy":-3},{"dx":-33,"dy":0},{"dx":-19,"dy":0},{"dx":-22,"dy":3},{"dx":-22,"dy":5},{"dx":-16,"dy":4},{"dx":-14,"dy":4},{"dx":-19,"dy":9},{"dx":-12,"dy":7},{"dx":-14,"dy":8},{"dx":-17,"dy":11},{"dx":-9,"dy":7},{"dx":-12,"dy":8},{"dx":-15,"dy":12},{"dx":-8,"dy":8},{"dx":-9,"dy":7},{"dx":-8,"dy":11},{"dx":-6,"dy":7},{"dx":-5,"dy":7},{"dx":-4,"dy":7},{"dx":-3,"dy":7},{"dx":-2,"dy":5},{"dx":-1,"dy":11},{"dx":-1,"dy":7},{"dx":0,"dy":5},{"dx":2,"dy":8},{"dx":2,"dy":8},{"dx":5,"dy":13},{"dx":7,"dy":14},{"dx":3,"dy":6},{"dx":4,"dy":7},{"dx":7,"dy":14},{"dx":4,"dy":5},{"dx":4,"dy":6},{"dx":10,"dy":8},{"dx":4,"dy":3},{"dx":7,"dy":5},{"dx":8,"dy":7},{"dx":6,"dy":4},{"dx":6,"dy":3},{"dx":8,"dy":4},{"dx":5,"dy":2},{"dx":5,"dy":1},{"dx":9,"dy":0},{"dx":6,"dy":0},{"dx":7,"dy":0},{"dx":5,"dy":0},{"dx":5,"dy":-2},{"dx":5,"dy":-2},{"dx":12,"dy":-7},{"dx":4,"dy":-4},{"dx":6,"dy":-6},{"dx":7,"dy":-5},{"dx":4,"dy":-4},{"dx":4,"dy":-4},{"dx":9,"dy":-5},{"dx":7,"dy":-2},{"dx":7,"dy":-2},{"dx":6,"dy":-3},{"dx":6,"dy":-3},{"dx":4,"dy":-3},{"dx":10,"dy":-4},{"dx":6,"dy":-1},{"dx":7,"dy":0},{"dx":6,"dy":2},{"dx":5,"dy":4},{"dx":3,"dy":4},{"dx":6,"dy":8},{"dx":2,"dy":6},{"dx":2,"dy":6},{"dx":2,"dy":5},{"dx":3,"dy":7},{"dx":1,"dy":9},{"dx":0,"dy":14},{"dx":0,"dy":9},{"dx":-4,"dy":6},{"dx":-5,"dy":7},{"dx":-6,"dy":6},{"dx":-13,"dy":8},{"dx":-21,"dy":5},{"dx":-15,"dy":3},{"dx":-20,"dy":1},{"dx":-32,"dy":0},{"dx":-24,"dy":-3},{"dx":-17,"dy":-2},{"dx":-24,"dy":-1},{"dx":-12,"dy":-1},{"dx":-5,"dy":-2},{"dx":-17,"dy":-8},{"dx":-12,"dy":-9},{"dx":-10,"dy":-10},{"dx":-13,"dy":-14},{"dx":-5,"dy":-7},{"dx":-5,"dy":-8},{"dx":-8,"dy":-17},{"dx":-5,"dy":-10},{"dx":-4,"dy":-13},{"dx":-3,"dy":-23},{"dx":-1,"dy":-13},{"dx":2,"dy":-9},{"dx":2,"dy":-10},{"dx":3,"dy":-10},{"dx":3,"dy":-10},{"dx":7,"dy":-14},{"dx":5,"dy":-10},{"dx":6,"dy":-10},{"dx":13,"dy":-15},{"dx":8,"dy":-9},{"dx":6,"dy":-5},{"dx":4,"dy":-5},{"dx":10,"dy":-6},{"dx":13,"dy":-2},{"dx":19,"dy":-3},{"dx":17,"dy":-1},{"dx":14,"dy":0},{"dx":17,"dy":0},{"dx":17,"dy":0},{"dx":16,"dy":0},{"dx":18,"dy":0},{"dx":12,"dy":0},{"dx":11,"dy":0},{"dx":15,"dy":-1},{"dx":9,"dy":-1},{"dx":11,"dy":-2},{"dx":13,"dy":-2},{"dx":10,"dy":-4},{"dx":12,"dy":-5},{"dx":16,"dy":-8},{"dx":8,"dy":-4},{"dx":4,"dy":-3},{"dx":3,"dy":-5},{"dx":0,"dy":-7},{"dx":-2,"dy":-10},{"dx":-13,"dy":-17},{"dx":-10,"dy":-10},{"dx":-8,"dy":-7},{"dx":-15,"dy":-11},{"dx":-10,"dy":-8},{"dx":-11,"dy":-8},{"dx":-9,"dy":-7},{"dx":-5,"dy":-5},{"dx":-4,"dy":-4},{"dx":-7,"dy":-7},{"dx":-2,"dy":-4},{"dx":-1,"dy":-1},{"dx":-2,"dy":-6},{"dx":0,"dy":-5},{"dx":0,"dy":-5},{"dx":1,"dy":-6},{"dx":2,"dy":-6},{"dx":4,"dy":-3},{"dx":18,"dy":-11},{"dx":15,"dy":-5},{"dx":17,"dy":-4},{"dx":27,"dy":-1},{"dx":14,"dy":0},{"dx":14,"dy":4},{"dx":17,"dy":7},{"dx":5,"dy":2},{"dx":5,"dy":5},{"dx":7,"dy":15},{"dx":2,"dy":9},{"dx":2,"dy":10},{"dx":2,"dy":16},{"dx":-1,"dy":14},{"dx":-2,"dy":12},{"dx":-10,"dy":19},{"dx":-12,"dy":16},{"dx":-11,"dy":14},{"dx":-15,"dy":19},{"dx":-9,"dy":12},{"dx":-10,"dy":13},{"dx":-12,"dy":17},{"dx":-7,"dy":9},{"dx":-5,"dy":9},{"dx":-3,"dy":6},{"dx":-2,"dy":7},{"dx":0,"dy":4},{"dx":2,"dy":6},{"dx":4,"dy":3},{"dx":11,"dy":4},{"dx":11,"dy":3},{"dx":8,"dy":4},{"dx":11,"dy":8},{"dx":12,"dy":12},{"dx":6,"dy":9},{"dx":5,"dy":7},{"dx":2,"dy":5},{"dx":0,"dy":5},{"dx":-8,"dy":10},{"dx":-21,"dy":13},{"dx":-21,"dy":9},{"dx":-19,"dy":9},{"dx":-34,"dy":17},{"dx":-20,"dy":11},{"dx":-17,"dy":9},{"dx":-36,"dy":9},{"dx":-16,"dy":4},{"dx":-13,"dy":3},{"dx":-15,"dy":1},{"dx":-8,"dy":0},{"dx":-8,"dy":0},{"dx":-13,"dy":-3},{"dx":-6,"dy":-1},{"dx":-7,"dy":-2},{"dx":-9,"dy":-4},{"dx":-4,"dy":-2},{"dx":-6,"dy":-4},{"dx":-6,"dy":-3},{"dx":-8,"dy":-5},{"dx":-7,"dy":-5},{"dx":-7,"dy":-7},{"dx":-1,"dy":0},{"dx":-3,"dy":-4},{"dx":0,"dy":0},{"dx":0,"dy":0},{"dx":0,"dy":-1},{"dx":0,"dy":-1},{"dx":0,"dy":-1},{"dx":0,"dy":-1},{"dx":2,"dy":-4},{"dx":3,"dy":-6},{"dx":3,"dy":-6},{"dx":5,"dy":-14},{"dx":3,"dy":-5},{"dx":2,"dy":-5},{"dx":4,"dy":-7},{"dx":4,"dy":-6},{"dx":3,"dy":-7},{"dx":5,"dy":-12},{"dx":3,"dy":-10},{"dx":2,"dy":-6},{"dx":3,"dy":-14},{"dx":0,"dy":-1},{"dx":0,"dy":-5},{"dx":0,"dy":-2},{"dx":0,"dy":-1},{"dx":0,"dy":-1},{"dx":-4,"dy":-4},{"dx":-4,"dy":-2},{"dx":0,"dy":0},{"dx":0,"dy":0},{"dx":0,"dy":0},{"dx":0,"dy":0},{"dx":0,"dy":0},{"dx":0,"dy":0},{"dx":0,"dy":0},{"dx":0,"dy":0},{"dx":0,"dy":0},{"dx":0,"dy":0},{"dx":0,"dy":0},{"dx":7,"dy":-12},{"dx":10,"dy":-12},{"dx":16,"dy":-11},{"dx":13,"dy":-8},{"dx":12,"dy":-6},{"dx":14,"dy":-10},{"dx":8,"dy":-5},{"dx":10,"dy":-4},{"dx":10,"dy":-3},{"dx":10,"dy":-2},{"dx":6,"dy":-1},{"dx":19,"dy":0},{"dx":13,"dy":1},{"dx":10,"dy":1},{"dx":20,"dy":2},{"dx":10,"dy":1},{"dx":9,"dy":3},{"dx":6,"dy":2},{"dx":6,"dy":2},{"dx":6,"dy":3},{"dx":5,"dy":2},{"dx":8,"dy":6},{"dx":3,"dy":4},{"dx":3,"dy":5}],"trial_type":"plugin-moving-dots-2","trial_index":2,"plugin_version":"0.0.1","time_elapsed":27553},{"task":"fixation","rt":1543,"stimulus":"<div style=\"font-size:60px;\">+</div>","response":" ","trial_type":"html-keyboard-response","trial_index":3,"plugin_version":"2.1.0","time_elapsed":29098},{"task":"movingdots","control_change":0,"mouse_data":[{"dx":0,"dy":0},{"dx":0,"dy":0},{"dx":0,"dy":0},{"dx":0,"dy":0},{"dx":0,"dy":0},{"dx":0,"dy":0},{"dx":0,"dy":0},{"dx":0,"dy":0},{"dx":0,"dy":0},{"dx":0,"dy":0},{"dx":0,"dy":0},{"dx":0,"dy":0},{"dx":0,"dy":0},{"dx":0,"dy":0},{"dx":0,"dy":0},{"dx":0,"dy":0},{"dx":0,"dy":0},{"dx":0,"dy":0},{"dx":-3,"dy":-5},{"dx":-2,"dy":-6},{"dx":-3,"dy":-5},{"dx":-3,"dy":-5},{"dx":-2,"dy":-4},{"dx":-3,"dy":-3},{"dx":-3,"dy":-9},{"dx":-1,"dy":-6},{"dx":0,"dy":-6},{"dx":1,"dy":-6},{"dx":3,"dy":-6},{"dx":3,"dy":-5},{"dx":3,"dy":-3},{"dx":3,"dy":-3},{"dx":3,"dy":-4},{"dx":7,"dy":-6},{"dx":3,"dy":-3},{"dx":5,"dy":-2},{"dx":4,"dy":-3},{"dx":5,"dy":-3},{"dx":5,"dy":-1},{"dx":4,"dy":-2},{"dx":6,"dy":0},{"dx":4,"dy":0},{"dx":9,"dy":1},{"dx":6,"dy":1},{"dx":4,"dy":3},{"dx":5,"dy":2},{"dx":5,"dy":3},{"dx":4,"dy":2},{"dx":10,"dy":5},{"dx":6,"dy":4},{"dx":6,"dy":3},{"dx":4,"dy":3},{"dx":4,"dy":4},{"dx":3,"dy":3},{"dx":3,"dy":6},{"dx":5,"dy":9},{"dx":2,"dy":5},{"dx":1,"dy":5},{"dx":2,"dy":5},{"dx":0,"dy":6},{"dx":0,"dy":5},{"dx":-3,"dy":14},{"dx":-3,"dy":7},{"dx":-4,"dy":6},{"dx":-14,"dy":10},{"dx":-12,"dy":6},{"dx":-11,"dy":5},{"dx":-8,"dy":8},{"dx":-4,"dy":5},{"dx":-5,"dy":4},{"dx":-6,"dy":5},{"dx":-7,"dy":4},{"dx":-17,"dy":8},{"dx":-9,"dy":2},{"dx":-11,"dy":2},{"dx":-5,"dy":0},{"dx":-17,"dy":-1},{"dx":-12,"dy":-2},{"dx":-11,"dy":-5},{"dx":-13,"dy":-8},{"dx":-9,"dy":-6},{"dx":-8,"dy":-4},{"dx":-5,"dy":-2},{"dx":-5,"dy":-1},{"dx":-5,"dy":0},{"dx":-5,"dy":0},{"dx":-4,"dy":1},{"dx":-5,"dy":1},{"dx":-7,"dy":7},{"dx":-2,"dy":5},{"dx":-1,"dy":1},{"dx":-1,"dy":13},{"dx":0,"dy":6},{"dx":2,"dy":11},{"dx":4,"dy":10},{"dx":4,"dy":10},{"dx":4,"dy":9},{"dx":12,"dy":16},{"dx":9,"dy":8},{"dx":8,"dy":6},{"dx":12,"dy":6},{"dx":10,"dy":3},{"dx":12,"dy":0},{"dx":16,"dy":-1},{"dx":12,"dy":-4},{"dx":13,"dy":-4},{"dx":14,"dy":-8},{"dx":9,"dy":-5},{"dx":9,"dy":-5},{"dx":17,"dy":-7},{"dx":11,"dy":-6},{"dx":8,"dy":-5},{"dx":14,"dy":-10},{"dx":10,"dy":-7},{"dx":8,"dy":-9},{"dx":12,"dy":-13},{"dx":8,"dy":-8},{"dx":9,"dy":-13},{"dx":16,"dy":-22},{"dx":4,"dy":-6},{"dx":4,"dy":-8},{"dx":2,"dy":-13},{"dx":0,"dy":-11},{"dx":-3,"dy":-11},{"dx":-5,"dy":-9},{"dx":-4,"dy":-9},{"dx":-6,"dy":-16},{"dx":-3,"dy":-11},{"dx":-3,"dy":-9},{"dx":-3,"dy":-8},{"dx":-6,"dy":-14},{"dx":-4,"dy":-7},{"dx":-4,"dy":-7},{"dx":-4,"dy":-3},{"dx":-5,"dy":-3},{"dx":-6,"dy":-2},{"dx":-13,"dy":0},{"dx":-12,"dy":0},{"dx":-13,"dy":0},{"dx":-21,"dy":0},{"dx":-13,"dy":0},{"dx":-12,"dy":1},{"dx":-16,"dy":4},{"dx":-12,"dy":4},{"dx":-15,"dy":4},{"dx":-19,"dy":9},{"dx":-13,"dy":5},{"dx":-12,"dy":5},{"dx":-17,"dy":9},{"dx":-9,"dy":7},{"dx":-11,"dy":7},{"dx":-8,"dy":9},{"dx":-4,"dy":5},{"dx":-4,"dy":7},{"dx":-6,"dy":11},{"dx":-2,"dy":7},{"dx":-1,"dy":8},{"dx":-1,"dy":8},{"dx":0,"dy":7},{"dx":2,"dy":6},{"dx":8,"dy":12},{"dx":5,"dy":8},{"dx":4,"dy":6},{"dx":4,"dy":6},{"dx":4,"dy":5},{"dx":4,"dy":5},{"dx":12,"dy":8},{"dx":8,"dy":3},{"dx":7,"dy":2},{"dx":13,"dy":1},{"dx":13,"dy":1},{"dx":11,"dy":0},{"dx":13,"dy":-3},{"dx":12,"dy":-2},{"dx":12,"dy":-3},{"dx":14,"dy":-8},{"dx":6,"dy":-5},{"dx":5,"dy":-6},{"dx":5,"dy":-5},{"dx":5,"dy":-3},{"dx":5,"dy":-1},{"dx":5,"dy":0},{"dx":6,"dy":1},{"dx":5,"dy":1},{"dx":13,"dy":1},{"dx":9,"dy":1},{"dx":10,"dy":1},{"dx":8,"dy":2},{"dx":7,"dy":3},{"dx":6,"dy":4},{"dx":8,"dy":11},{"dx":4,"dy":6},{"dx":3,"dy":7},{"dx":2,"dy":6},{"dx":0,"dy":6},{"dx":0,"dy":6},{"dx":-9,"dy":14},{"dx":-8,"dy":6},{"dx":-8,"dy":6},{"dx":-26,"dy":9},{"dx":-17,"dy":6},{"dx":-14,"dy":5},{"dx":-25,"dy":7},{"dx":-15,"dy":6},{"dx":-14,"dy":4},{"dx":-20,"dy":1},{"dx":-13,"dy":0},{"dx":-14,"dy":-3},{"dx":-18,"dy":-5},{"dx":-11,"dy":-6},{"dx":-13,"dy":-7},{"dx":-18,"dy":-16},{"dx":-10,"dy":-9},{"dx":-8,"dy":-9},{"dx":-7,"dy":-9},{"dx":-8,"dy":-12},{"dx":-4,"dy":-8},{"dx":-2,"dy":-8},{"dx":-1,"dy":-6},{"dx":1,"dy":-15},{"dx":8,"dy":-21},{"dx":6,"dy":-13},{"dx":8,"dy":-11},{"dx":13,"dy":-16},{"dx":12,"dy":-11},{"dx":12,"dy":-9},{"dx":27,"dy":-13},{"dx":16,"dy":-8},{"dx":18,"dy":-8},{"dx":25,"dy":-9},{"dx":12,"dy":-4},{"dx":12,"dy":-2},{"dx":21,"dy":-1},{"dx":9,"dy":0},{"dx":6,"dy":0},{"dx":6,"dy":1},{"dx":6,"dy":3},{"dx":6,"dy":2},{"dx":9,"dy":7},{"dx":5,"dy":5},{"dx":4,"dy":4},{"dx":4,"dy":7},{"dx":3,"dy":6},{"dx":2,"dy":9},{"dx":4,"dy":17},{"dx":2,"dy":11},{"dx":1,"dy":12},{"dx":1,"dy":11},{"dx":0,"dy":8},{"dx":2,"dy":9},{"dx":2,"dy":12},{"dx":2,"dy":5},{"dx":2,"dy":4},{"dx":3,"dy":4},{"dx":3,"dy":3},{"dx":3,"dy":5},{"dx":7,"dy":7},{"dx":4,"dy":3},{"dx":5,"dy":3},{"dx":5,"dy":4},{"dx":5,"dy":4},{"dx":5,"dy":3},{"dx":5,"dy":3},{"dx":10,"dy":2},{"dx":8,"dy":0},{"dx":7,"dy":-4},{"dx":14,"dy":-7},{"dx":9,"dy":-5},{"dx":10,"dy":-5},{"dx":6,"dy":-4},{"dx":5,"dy":-4},{"dx":4,"dy":-3},{"dx":10,"dy":-11},{"dx":7,"dy":-9},{"dx":7,"dy":-9},{"dx":7,"dy":-9},{"dx":4,"dy":-8},{"dx":3,"dy":-7},{"dx":3,"dy":-12},{"dx":0,"dy":-5},{"dx":0,"dy":-5},{"dx":-2,"dy":-9},{"dx":-5,"dy":-14},{"dx":-2,"dy":-6},{"dx":-7,"dy":-16},{"dx":-5,"dy":-9},{"dx":-7,"dy":-11},{"dx":-23,"dy":-22},{"dx":-19,"dy":-14},{"dx":-15,"dy":-10},{"dx":-22,"dy":-12},{"dx":-12,"dy":-8},{"dx":-13,"dy":-8},{"dx":-27,"dy":-9},{"dx":-14,"dy":-2},{"dx":-16,"dy":-2},{"dx":-18,"dy":0},{"dx":-8,"dy":4},{"dx":-9,"dy":4},{"dx":-14,"dy":11},{"dx":-13,"dy":9},{"dx":-11,"dy":10},{"dx":-15,"dy":18},{"dx":-9,"dy":11},{"dx":-9,"dy":12},{"dx":-5,"dy":7},{"dx":-18,"dy":23},{"dx":-9,"dy":10},{"dx":-14,"dy":12},{"dx":-10,"dy":6},{"dx":-10,"dy":5},{"dx":-18,"dy":5},{"dx":-11,"dy":2},{"dx":-10,"dy":3},{"dx":-21,"dy":0},{"dx":-14,"dy":-1},{"dx":-11,"dy":-3},{"dx":-19,"dy":-2},{"dx":-9,"dy":-2},{"dx":-15,"dy":-4},{"dx":-10,"dy":-3},{"dx":-5,"dy":-2},{"dx":-7,"dy":-2},{"dx":-6,"dy":-3},{"dx":-5,"dy":-1},{"dx":-4,"dy":0},{"dx":-9,"dy":4},{"dx":-3,"dy":3},{"dx":-3,"dy":5},{"dx":-2,"dy":6},{"dx":-1,"dy":15},{"dx":-1,"dy":10},{"dx":0,"dy":19},{"dx":1,"dy":14},{"dx":1,"dy":13},{"dx":5,"dy":18},{"dx":2,"dy":10},{"dx":1,"dy":6},{"dx":7,"dy":14},{"dx":3,"dy":4},{"dx":3,"dy":4},{"dx":1,"dy":0},{"dx":1,"dy":1},{"dx":0,"dy":1},{"dx":1,"dy":1},{"dx":0,"dy":0},{"dx":-4,"dy":2},{"dx":-8,"dy":1},{"dx":-7,"dy":0},{"dx":-6,"dy":0},{"dx":-4,"dy":0},{"dx":-1,"dy":0},{"dx":0,"dy":0},{"dx":0,"dy":0},{"dx":7,"dy":0},{"dx":11,"dy":1},{"dx":25,"dy":4},{"dx":16,"dy":3},{"dx":19,"dy":4},{"dx":32,"dy":7},{"dx":24,"dy":6},{"dx":19,"dy":5},{"dx":26,"dy":5},{"dx":18,"dy":3},{"dx":13,"dy":1},{"dx":12,"dy":2},{"dx":21,"dy":-1},{"dx":9,"dy":-1},{"dx":12,"dy":-2},{"dx":6,"dy":-1},{"dx":6,"dy":0},{"dx":5,"dy":0},{"dx":1,"dy":0},{"dx":3,"dy":-1},{"dx":6,"dy":-3},{"dx":4,"dy":-2},{"dx":1,"dy":0},{"dx":10,"dy":0},{"dx":10,"dy":3},{"dx":11,"dy":5},{"dx":14,"dy":7},{"dx":10,"dy":4},{"dx":10,"dy":4},{"dx":15,"dy":3},{"dx":7,"dy":2},{"dx":9,"dy":0},{"dx":13,"dy":0},{"dx":8,"dy":-2},{"dx":9,"dy":-3},{"dx":10,"dy":-3},{"dx":16,"dy":-5},{"dx":4,"dy":-3},{"dx":18,"dy":-8},{"dx":12,"dy":-6},{"dx":13,"dy":-8},{"dx":14,"dy":-9},{"dx":5,"dy":-2},{"dx":8,"dy":-3},{"dx":5,"dy":-2},{"dx":4,"dy":-1},{"dx":0,"dy":0},{"dx":1,"dy":-1},{"dx":0,"dy":-2},{"dx":0,"dy":-1},{"dx":1,"dy":-4},{"dx":2,"dy":-7},{"dx":0,"dy":-1},{"dx":4,"dy":-4},{"dx":7,"dy":-8},{"dx":6,"dy":-5},{"dx":7,"dy":-4},{"dx":5,"dy":-3},{"dx":6,"dy":-4},{"dx":4,"dy":-1},{"dx":10,"dy":-6},{"dx":10,"dy":-4},{"dx":11,"dy":-4},{"dx":10,"dy":-4},{"dx":7,"dy":-4},{"dx":4,"dy":-1},{"dx":2,"dy":-5},{"dx":0,"dy":0},{"dx":0,"dy":-7},{"dx":-5,"dy":-13},{"dx":-6,"dy":-12},{"dx":-8,"dy":-10},{"dx":-10,"dy":-15},{"dx":-3,"dy":-7},{"dx":-3,"dy":-7},{"dx":-3,"dy":-9},{"dx":-5,"dy":-12},{"dx":-7,"dy":-9},{"dx":-12,"dy":-15},{"dx":-4,"dy":-4},{"dx":-5,"dy":-7},{"dx":-8,"dy":-10},{"dx":-5,"dy":-5},{"dx":-7,"dy":-7},{"dx":-6,"dy":-7},{"dx":-6,"dy":-5},{"dx":-3,"dy":-3},{"dx":-5,"dy":-3},{"dx":-3,"dy":-3},{"dx":-6,"dy":-2},{"dx":-16,"dy":-2},{"dx":-10,"dy":-1},{"dx":-12,"dy":0},{"dx":-23,"dy":0},{"dx":-16,"dy":0},{"dx":-15,"dy":1},{"dx":-25,"dy":1},{"dx":-15,"dy":2},{"dx":-17,"dy":0}],"trial_type":"plugin-moving-dots-2","trial_index":4,"plugin_version":"0.0.1","time_elapsed":36603},{"task":"fixation","rt":940,"stimulus":"<div style=\"font-size:60px;\">+</div>","response":" ","trial_type":"html-keyboard-response","trial_index":5,"plugin_version":"2.1.0","time_elapsed":37545},{"task":"movingdots","control_change":0,"mouse_data":[{"dx":0,"dy":0},{"dx":0,"dy":0},{"dx":0,"dy":0},{"dx":0,"dy":0},{"dx":0,"dy":0},{"dx":0,"dy":0},{"dx":0,"dy":0},{"dx":0,"dy":0},{"dx":0,"dy":0},{"dx":0,"dy":0},{"dx":0,"dy":0},{"dx":0,"dy":0},{"dx":0,"dy":0},{"dx":0,"dy":0},{"dx":0,"dy":0},{"dx":0,"dy":0},{"dx":0,"dy":0},{"dx":0,"dy":0},{"dx":0,"dy":0},{"dx":0,"dy":0},{"dx":0,"dy":0},{"dx":0,"dy":-1},{"dx":0,"dy":-5},{"dx":0,"dy":-2},{"dx":0,"dy":-1},{"dx":-2,"dy":-6},{"dx":0,"dy":-1},{"dx":-4,"dy":-4},{"dx":-4,"dy":-3},{"dx":-3,"dy":-3},{"dx":-3,"dy":-3},{"dx":-6,"dy":-5},{"dx":-4,"dy":-3},{"dx":-3,"dy":-4},{"dx":-6,"dy":-7},{"dx":-1,"dy":0},{"dx":-2,"dy":-4},{"dx":-4,"dy":-3},{"dx":-5,"dy":-2},{"dx":-4,"dy":-1},{"dx":-6,"dy":-1},{"dx":-5,"dy":0},{"dx":-5,"dy":0},{"dx":-13,"dy":6},{"dx":-8,"dy":4},{"dx":-6,"dy":4},{"dx":-8,"dy":4},{"dx":-6,"dy":3},{"dx":-5,"dy":2},{"dx":-3,"dy":4},{"dx":-3,"dy":4},{"dx":0,"dy":0},{"dx":-2,"dy":6},{"dx":-1,"dy":7},{"dx":0,"dy":6},{"dx":0,"dy":5},{"dx":2,"dy":7},{"dx":3,"dy":7},{"dx":5,"dy":15},{"dx":3,"dy":7},{"dx":3,"dy":7},{"dx":2,"dy":7},{"dx":2,"dy":7},{"dx":2,"dy":7},{"dx":4,"dy":12},{"dx":3,"dy":6},{"dx":0,"dy":1},{"dx":2,"dy":6},{"dx":0,"dy":1},{"dx":0,"dy":1},{"dx":-1,"dy":6},{"dx":-4,"dy":4},{"dx":-4,"dy":2},{"dx":-7,"dy":3},{"dx":-7,"dy":2},{"dx":-6,"dy":1},{"dx":-10,"dy":4},{"dx":-6,"dy":1},{"dx":-7,"dy":2},{"dx":-7,"dy":1},{"dx":-5,"dy":0},{"dx":-5,"dy":0},{"dx":-10,"dy":0},{"dx":-5,"dy":-1},{"dx":-4,"dy":0},{"dx":-5,"dy":-1},{"dx":-5,"dy":-4},{"dx":0,"dy":0},{"dx":-3,"dy":-9},{"dx":0,"dy":-5},{"dx":0,"dy":-8},{"dx":7,"dy":-14},{"dx":8,"dy":-11},{"dx":8,"dy":-9},{"dx":14,"dy":-11},{"dx":10,"dy":-6},{"dx":9,"dy":-4},{"dx":14,"dy":-5},{"dx":10,"dy":-5},{"dx":11,"dy":-4},{"dx":10,"dy":-8},{"dx":6,"dy":-5},{"dx":6,"dy":-5},{"dx":6,"dy":-4},{"dx":5,"dy":-2},{"dx":6,"dy":-1},{"dx":9,"dy":1},{"dx":4,"dy":3},{"dx":2,"dy":4},{"dx":4,"dy":8},{"dx":4,"dy":8},{"dx":5,"dy":15},{"dx":7,"dy":16},{"dx":4,"dy":9},{"dx":6,"dy":7},{"dx":4,"dy":5},{"dx":4,"dy":5},{"dx":4,"dy":3},{"dx":13,"dy":5},{"dx":8,"dy":2},{"dx":8,"dy":1},{"dx":7,"dy":1},{"dx":6,"dy":0},{"dx":12,"dy":1},{"dx":15,"dy":2},{"dx":6,"dy":1},{"dx":13,"dy":2},{"dx":7,"dy":1},{"dx":7,"dy":1},{"dx":8,"dy":1},{"dx":10,"dy":3},{"dx":5,"dy":0},{"dx":1,"dy":0},{"dx":9,"dy":0},{"dx":6,"dy":-1},{"dx":4,"dy":-1},{"dx":5,"dy":-3},{"dx":3,"dy":-2},{"dx":5,"dy":-1},{"dx":7,"dy":-4},{"dx":5,"dy":-2},{"dx":4,"dy":-4},{"dx":5,"dy":-5},{"dx":8,"dy":-13},{"dx":8,"dy":-11},{"dx":12,"dy":-13},{"dx":6,"dy":-5},{"dx":4,"dy":-4},{"dx":2,"dy":-4},{"dx":4,"dy":-4},{"dx":0,"dy":-1},{"dx":3,"dy":-5},{"dx":1,"dy":-1},{"dx":3,"dy":-5},{"dx":0,"dy":0},{"dx":3,"dy":-5},{"dx":0,"dy":-1},{"dx":1,"dy":-4},{"dx":3,"dy":-6},{"dx":1,"dy":-5},{"dx":0,"dy":-14},{"dx":-3,"dy":-9},{"dx":-6,"dy":-9},{"dx":-16,"dy":-10},{"dx":-12,"dy":-5},{"dx":-11,"dy":-4},{"dx":-12,"dy":-4},{"dx":-5,"dy":-1},{"dx":-4,"dy":-1},{"dx":-4,"dy":-1},{"dx":-5,"dy":0},{"dx":-6,"dy":0},{"dx":-14,"dy":2},{"dx":-10,"dy":2},{"dx":-5,"dy":1},{"dx":-16,"dy":3},{"dx":-7,"dy":2},{"dx":-7,"dy":1},{"dx":-7,"dy":1},{"dx":-5,"dy":0},{"dx":-4,"dy":0},{"dx":-10,"dy":-1},{"dx":-7,"dy":-1},{"dx":-7,"dy":-1},{"dx":-9,"dy":-3},{"dx":-6,"dy":-4},{"dx":-6,"dy":-3},{"dx":-12,"dy":-9},{"dx":-3,"dy":-4},{"dx":-1,"dy":0},{"dx":-6,"dy":-9},{"dx":-3,"dy":-5},{"dx":-1,"dy":-4},{"dx":-2,"dy":-6},{"dx":0,"dy":-7},{"dx":0,"dy":-5},{"dx":2,"dy":-5},{"dx":5,"dy":-10},{"dx":3,"dy":-4},{"dx":3,"dy":-5},{"dx":3,"dy":-5},{"dx":2,"dy":-6},{"dx":0,"dy":-1},{"dx":0,"dy":-6},{"dx":1,"dy":-5},{"dx":0,"dy":0},{"dx":1,"dy":-2},{"dx":2,"dy":-4},{"dx":4,"dy":-5},{"dx":5,"dy":-3},{"dx":12,"dy":-3},{"dx":11,"dy":-2},{"dx":14,"dy":-1},{"dx":12,"dy":1},{"dx":11,"dy":2},{"dx":24,"dy":7},{"dx":16,"dy":8},{"dx":13,"dy":8},{"dx":16,"dy":11},{"dx":10,"dy":7},{"dx":5,"dy":3},{"dx":7,"dy":6},{"dx":3,"dy":5},{"dx":2,"dy":4},{"dx":3,"dy":7},{"dx":0,"dy":0},{"dx":1,"dy":5},{"dx":-2,"dy":8},{"dx":-4,"dy":4},{"dx":-10,"dy":6},{"dx":-16,"dy":7},{"dx":-15,"dy":6},{"dx":-13,"dy":6},{"dx":-23,"dy":7},{"dx":-16,"dy":3},{"dx":-10,"dy":0},{"dx":-13,"dy":0},{"dx":-10,"dy":-3},{"dx":-9,"dy":-3},{"dx":-13,"dy":-8},{"dx":-7,"dy":-7},{"dx":-8,"dy":-8},{"dx":-13,"dy":-13},{"dx":-8,"dy":-6},{"dx":-8,"dy":-5},{"dx":-6,"dy":-3},{"dx":-5,"dy":-3},{"dx":-7,"dy":-2},{"dx":-10,"dy":-3},{"dx":-5,"dy":-1},{"dx":-6,"dy":-1},{"dx":-5,"dy":0},{"dx":-6,"dy":0},{"dx":-7,"dy":0},{"dx":-10,"dy":0},{"dx":-7,"dy":1},{"dx":-6,"dy":0},{"dx":-8,"dy":1},{"dx":-6,"dy":1},{"dx":-6,"dy":0},{"dx":-9,"dy":1},{"dx":-5,"dy":1},{"dx":-5,"dy":2},{"dx":-4,"dy":1},{"dx":-4,"dy":3},{"dx":-3,"dy":3},{"dx":-7,"dy":8},{"dx":-3,"dy":5},{"dx":-2,"dy":5},{"dx":-3,"dy":7},{"dx":-2,"dy":6},{"dx":-2,"dy":9},{"dx":-2,"dy":16},{"dx":-1,"dy":7},{"dx":-1,"dy":7},{"dx":0,"dy":8},{"dx":-1,"dy":7},{"dx":0,"dy":7},{"dx":-1,"dy":12},{"dx":0,"dy":5},{"dx":0,"dy":4},{"dx":2,"dy":7},{"dx":2,"dy":7},{"dx":2,"dy":5},{"dx":5,"dy":8},{"dx":2,"dy":4},{"dx":3,"dy":3},{"dx":3,"dy":5},{"dx":2,"dy":4},{"dx":3,"dy":5},{"dx":5,"dy":10},{"dx":3,"dy":5},{"dx":3,"dy":5},{"dx":5,"dy":6},{"dx":5,"dy":6},{"dx":7,"dy":9},{"dx":7,"dy":6},{"dx":5,"dy":5},{"dx":3,"dy":4},{"dx":8,"dy":10},{"dx":4,"dy":5},{"dx":5,"dy":4},{"dx":2,"dy":2},{"dx":1,"dy":0},{"dx":10,"dy":-8},{"dx":2,"dy":-3},{"dx":0,"dy":0},{"dx":0,"dy":0},{"dx":0,"dy":0},{"dx":0,"dy":0},{"dx":0,"dy":0},{"dx":0,"dy":0},{"dx":0,"dy":0},{"dx":0,"dy":0},{"dx":0,"dy":0},{"dx":0,"dy":0},{"dx":0,"dy":0},{"dx":0,"dy":0},{"dx":0,"dy":0},{"dx":0,"dy":0},{"dx":24,"dy":1},{"dx":13,"dy":3},{"dx":15,"dy":3},{"dx":17,"dy":7},{"dx":6,"dy":3},{"dx":5,"dy":3},{"dx":5,"dy":3},{"dx":4,"dy":1},{"dx":6,"dy":2},{"dx":4,"dy":0},{"dx":1,"dy":0},{"dx":4,"dy":1},{"dx":4,"dy":0},{"dx":6,"dy":0},{"dx":4,"dy":-1},{"dx":12,"dy":-2},{"dx":5,"dy":-2},{"dx":4,"dy":-2},{"dx":5,"dy":-4},{"dx":3,"dy":-2},{"dx":5,"dy":-4},{"dx":8,"dy":-6},{"dx":6,"dy":-5},{"dx":5,"dy":-5},{"dx":6,"dy":-7},{"dx":3,"dy":-5},{"dx":2,"dy":-4},{"dx":3,"dy":-6},{"dx":1,"dy":-6},{"dx":0,"dy":-5},{"dx":1,"dy":-6},{"dx":0,"dy":0},{"dx":0,"dy":-2},{"dx":0,"dy":-6},{"dx":0,"dy":-1},{"dx":0,"dy":-5},{"dx":-3,"dy":-6},{"dx":-3,"dy":-6},{"dx":-2,"dy":-4},{"dx":-6,"dy":-8},{"dx":-3,"dy":-4},{"dx":-3,"dy":-3},{"dx":-4,"dy":-5},{"dx":-5,"dy":-6},{"dx":-5,"dy":-4},{"dx":-4,"dy":-6},{"dx":-8,"dy":-12},{"dx":-3,"dy":-4},{"dx":-3,"dy":-5},{"dx":-3,"dy":-6},{"dx":-2,"dy":-4},{"dx":-2,"dy":-5},{"dx":-3,"dy":-5},{"dx":0,"dy":-1},{"dx":-4,"dy":-3},{"dx":-6,"dy":-2},{"dx":-5,"dy":0},{"dx":-6,"dy":0},{"dx":-15,"dy":0},{"dx":-5,"dy":0},{"dx":-7,"dy":-1},{"dx":-18,"dy":-3},{"dx":-5,"dy":0},{"dx":-7,"dy":-2},{"dx":-5,"dy":-2},{"dx":-1,"dy":0},{"dx":-4,"dy":-3},{"dx":-2,"dy":-5},{"dx":0,"dy":0},{"dx":-2,"dy":-6},{"dx":-3,"dy":-12},{"dx":0,"dy":-5},{"dx":-1,"dy":-5},{"dx":-2,"dy":-5},{"dx":-2,"dy":-5},{"dx":-1,"dy":-2},{"dx":-2,"dy":-5},{"dx":-2,"dy":-5},{"dx":0,"dy":-2},{"dx":0,"dy":-1},{"dx":2,"dy":-5},{"dx":13,"dy":-3},{"dx":14,"dy":-1},{"dx":16,"dy":0},{"dx":16,"dy":0},{"dx":24,"dy":1},{"dx":13,"dy":3},{"dx":15,"dy":5},{"dx":7,"dy":3},{"dx":5,"dy":4},{"dx":4,"dy":5},{"dx":3,"dy":5},{"dx":2,"dy":6},{"dx":0,"dy":6},{"dx":-1,"dy":14},{"dx":-4,"dy":9},{"dx":-6,"dy":8},{"dx":-9,"dy":16},{"dx":-6,"dy":11},{"dx":-7,"dy":10},{"dx":-7,"dy":10},{"dx":-6,"dy":7},{"dx":-3,"dy":7},{"dx":-4,"dy":11},{"dx":-1,"dy":0},{"dx":-1,"dy":7},{"dx":3,"dy":13},{"dx":3,"dy":5},{"dx":6,"dy":6},{"dx":6,"dy":6},{"dx":7,"dy":5},{"dx":7,"dy":4},{"dx":10,"dy":5},{"dx":0,"dy":1},{"dx":3,"dy":3},{"dx":1,"dy":0},{"dx":-5,"dy":4},{"dx":-9,"dy":3},{"dx":-17,"dy":6},{"dx":-14,"dy":4},{"dx":-10,"dy":5},{"dx":-7,"dy":4},{"dx":-6,"dy":5},{"dx":-9,"dy":7},{"dx":-12,"dy":10},{"dx":-6,"dy":7},{"dx":-7,"dy":5},{"dx":-6,"dy":3},{"dx":-8,"dy":2},{"dx":-9,"dy":2},{"dx":-15,"dy":-4},{"dx":-5,"dy":-2},{"dx":-4,"dy":-5}],"trial_type":"plugin-moving-dots-2","trial_index":6,"plugin_version":"0.0.1","time_elapsed":45053},{"task":"fixation","rt":1772,"stimulus":"<div style=\"font-size:60px;\">+</div>","response":" ","trial_type":"html-keyboard-response","trial_index":7,"plugin_version":"2.1.0","time_elapsed":46826},{"task":"movingdots","control_change":0,"mouse_data":[{"dx":0,"dy":0},{"dx":0,"dy":0},{"dx":0,"dy":0},{"dx":0,"dy":0},{"dx":0,"dy":0},{"dx":0,"dy":0},{"dx":0,"dy":0},{"dx":0,"dy":0},{"dx":0,"dy":0},{"dx":0,"dy":0},{"dx":0,"dy":0},{"dx":0,"dy":0},{"dx":0,"dy":0},{"dx":0,"dy":0},{"dx":0,"dy":0},{"dx":0,"dy":0},{"dx":0,"dy":0},{"dx":0,"dy":0},{"dx":0,"dy":0},{"dx":0,"dy":0},{"dx":-1,"dy":-7},{"dx":0,"dy":0},{"dx":0,"dy":-1},{"dx":0,"dy":-3},{"dx":0,"dy":-2},{"dx":0,"dy":-1},{"dx":0,"dy":-2},{"dx":0,"dy":-1},{"dx":-1,"dy":-1},{"dx":0,"dy":-1},{"dx":0,"dy":-1},{"dx":0,"dy":-1},{"dx":-4,"dy":-5},{"dx":0,"dy":0},{"dx":-1,"dy":-1},{"dx":-5,"dy":-3},{"dx":-1,"dy":0},{"dx":-1,"dy":-1},{"dx":-5,"dy":-1},{"dx":0,"dy":-1},{"dx":-4,"dy":0},{"dx":-2,"dy":0},{"dx":-4,"dy":2},{"dx":-4,"dy":4},{"dx":-3,"dy":5},{"dx":-3,"dy":4},{"dx":-1,"dy":5},{"dx":-2,"dy":5},{"dx":0,"dy":1},{"dx":-2,"dy":7},{"dx":-4,"dy":10},{"dx":-1,"dy":5},{"dx":-2,"dy":5},{"dx":-2,"dy":5},{"dx":-2,"dy":5},{"dx":-2,"dy":6},{"dx":-3,"dy":4},{"dx":-2,"dy":5},{"dx":0,"dy":1},{"dx":-5,"dy":10},{"dx":-3,"dy":4},{"dx":-3,"dy":3},{"dx":-5,"dy":6},{"dx":-3,"dy":3},{"dx":-4,"dy":5},{"dx":-8,"dy":7},{"dx":-3,"dy":3},{"dx":-3,"dy":4},{"dx":-4,"dy":6},{"dx":0,"dy":0},{"dx":-2,"dy":6},{"dx":0,"dy":5},{"dx":0,"dy":6},{"dx":2,"dy":5},{"dx":3,"dy":5},{"dx":8,"dy":8},{"dx":6,"dy":6},{"dx":6,"dy":4},{"dx":13,"dy":5},{"dx":11,"dy":3},{"dx":15,"dy":2},{"dx":10,"dy":-1},{"dx":13,"dy":-2},{"dx":17,"dy":-4},{"dx":10,"dy":-3},{"dx":7,"dy":-2},{"dx":12,"dy":-1},{"dx":6,"dy":0},{"dx":4,"dy":0},{"dx":5,"dy":0},{"dx":6,"dy":0},{"dx":4,"dy":0},{"dx":7,"dy":2},{"dx":6,"dy":1},{"dx":4,"dy":2},{"dx":9,"dy":2},{"dx":0,"dy":0},{"dx":3,"dy":2},{"dx":4,"dy":3},{"dx":3,"dy":3},{"dx":0,"dy":1},{"dx":3,"dy":3},{"dx":1,"dy":0},{"dx":1,"dy":1},{"dx":1,"dy":2},{"dx":0,"dy":0},{"dx":0,"dy":0},{"dx":1,"dy":1},{"dx":6,"dy":-1},{"dx":6,"dy":-3},{"dx":11,"dy":-11},{"dx":10,"dy":-9},{"dx":10,"dy":-10},{"dx":15,"dy":-12},{"dx":11,"dy":-7},{"dx":12,"dy":-7},{"dx":13,"dy":-8},{"dx":5,"dy":-3},{"dx":4,"dy":-2},{"dx":4,"dy":-3},{"dx":3,"dy":-2},{"dx":3,"dy":-3},{"dx":7,"dy":-8},{"dx":0,"dy":-1},{"dx":1,"dy":-4},{"dx":-1,"dy":-7},{"dx":-2,"dy":-5},{"dx":-4,"dy":-6},{"dx":-7,"dy":-9},{"dx":-6,"dy":-6},{"dx":-4,"dy":-5},{"dx":-3,"dy":-6},{"dx":-4,"dy":-6},{"dx":-3,"dy":-8},{"dx":-5,"dy":-9},{"dx":-4,"dy":-5},{"dx":-4,"dy":-2},{"dx":-1,"dy":-1},{"dx":-11,"dy":-1},{"dx":-7,"dy":0},{"dx":-6,"dy":2},{"dx":-6,"dy":4},{"dx":-5,"dy":4},{"dx":-9,"dy":12},{"dx":-11,"dy":12},{"dx":-9,"dy":10},{"dx":-8,"dy":9},{"dx":-4,"dy":7},{"dx":-4,"dy":6},{"dx":-2,"dy":5},{"dx":-3,"dy":7},{"dx":-3,"dy":5},{"dx":-2,"dy":5},{"dx":-2,"dy":4},{"dx":-2,"dy":5},{"dx":-3,"dy":3},{"dx":-7,"dy":6},{"dx":-6,"dy":4},{"dx":-6,"dy":3},{"dx":-14,"dy":4},{"dx":-9,"dy":1},{"dx":-12,"dy":2},{"dx":-18,"dy":0},{"dx":-11,"dy":0},{"dx":-9,"dy":2},{"dx":-14,"dy":0},{"dx":-10,"dy":0},{"dx":-7,"dy":0},{"dx":-8,"dy":0},{"dx":-5,"dy":0},{"dx":-6,"dy":-1},{"dx":-9,"dy":-3},{"dx":-4,"dy":-1},{"dx":-5,"dy":-3},{"dx":-4,"dy":-3},{"dx":-3,"dy":-4},{"dx":-3,"dy":-3},{"dx":-3,"dy":-4},{"dx":-2,"dy":-5},{"dx":-2,"dy":-6},{"dx":-2,"dy":-11},{"dx":-1,"dy":-5},{"dx":0,"dy":-6},{"dx":-1,"dy":-7},{"dx":0,"dy":-6},{"dx":-1,"dy":0},{"dx":-2,"dy":-5},{"dx":-6,"dy":-3},{"dx":-4,"dy":-2},{"dx":-1,"dy":-1},{"dx":-1,"dy":-1},{"dx":-1,"dy":-1},{"dx":-4,"dy":-5},{"dx":0,"dy":0},{"dx":-1,"dy":-6},{"dx":1,"dy":-6},{"dx":2,"dy":-7},{"dx":1,"dy":0},{"dx":3,"dy":-2},{"dx":4,"dy":-1},{"dx":0,"dy":0},{"dx":5,"dy":0},{"dx":5,"dy":3},{"dx":4,"dy":2},{"dx":5,"dy":3},{"dx":4,"dy":3},{"dx":5,"dy":2},{"dx":1,"dy":0},{"dx":1,"dy":0},{"dx":1,"dy":0},{"dx":0,"dy":1},{"dx":1,"dy":0},{"dx":1,"dy":-6},{"dx":0,"dy":-6},{"dx":-2,"dy":-7},{"dx":0,"dy":-8},{"dx":-1,"dy":-20},{"dx":-1,"dy":-10},{"dx":-1,"dy":-6},{"dx":-2,"dy":-7},{"dx":0,"dy":0},{"dx":-3,"dy":-4},{"dx":-9,"dy":-3},{"dx":-6,"dy":0},{"dx":-5,"dy":0},{"dx":-6,"dy":3},{"dx":-4,"dy":4},{"dx":-4,"dy":4},{"dx":-7,"dy":5},{"dx":0,"dy":0},{"dx":-5,"dy":3},{"dx":-1,"dy":1},{"dx":-1,"dy":0},{"dx":0,"dy":0},{"dx":-1,"dy":1},{"dx":-1,"dy":1},{"dx":-3,"dy":3},{"dx":-5,"dy":4},{"dx":-4,"dy":4},{"dx":-4,"dy":4},{"dx":-15,"dy":9},{"dx":-5,"dy":3},{"dx":-6,"dy":4},{"dx":-6,"dy":2},{"dx":-4,"dy":1},{"dx":-4,"dy":0},{"dx":-6,"dy":1},{"dx":-12,"dy":2},{"dx":-4,"dy":1},{"dx":-7,"dy":2},{"dx":-4,"dy":2},{"dx":-4,"dy":3},{"dx":-4,"dy":2},{"dx":-5,"dy":4},{"dx":-3,"dy":3},{"dx":-3,"dy":2},{"dx":-3,"dy":6},{"dx":0,"dy":6},{"dx":0,"dy":7},{"dx":2,"dy":9},{"dx":1,"dy":4},{"dx":3,"dy":6},{"dx":3,"dy":5},{"dx":4,"dy":4},{"dx":3,"dy":5},{"dx":11,"dy":11},{"dx":6,"dy":7},{"dx":5,"dy":4},{"dx":5,"dy":4},{"dx":4,"dy":4},{"dx":5,"dy":2},{"dx":14,"dy":1},{"dx":7,"dy":0},{"dx":7,"dy":-1},{"dx":11,"dy":-3},{"dx":11,"dy":-3},{"dx":17,"dy":-8},{"dx":15,"dy":-8},{"dx":19,"dy":-7},{"dx":13,"dy":-7},{"dx":17,"dy":-8},{"dx":15,"dy":-5},{"dx":12,"dy":-5},{"dx":26,"dy":-11},{"dx":23,"dy":-8},{"dx":15,"dy":-6},{"dx":27,"dy":-6},{"dx":14,"dy":-3},{"dx":18,"dy":-2},{"dx":25,"dy":-2},{"dx":14,"dy":-1},{"dx":12,"dy":-1},{"dx":12,"dy":-2},{"dx":6,"dy":-1},{"dx":4,"dy":-1},{"dx":2,"dy":-1},{"dx":1,"dy":-1},{"dx":0,"dy":-1},{"dx":-2,"dy":-9},{"dx":-2,"dy":-6},{"dx":-1,"dy":-1},{"dx":-1,"dy":-7},{"dx":0,"dy":-5},{"dx":3,"dy":-4},{"dx":13,"dy":-11},{"dx":14,"dy":-9},{"dx":15,"dy":-11},{"dx":18,"dy":-13},{"dx":8,"dy":-4},{"dx":8,"dy":-5},{"dx":7,"dy":-2},{"dx":10,"dy":-1},{"dx":15,"dy":0},{"dx":7,"dy":0},{"dx":5,"dy":3},{"dx":5,"dy":3},{"dx":7,"dy":6},{"dx":9,"dy":9},{"dx":6,"dy":6},{"dx":4,"dy":5},{"dx":3,"dy":5},{"dx":3,"dy":5},{"dx":3,"dy":13},{"dx":1,"dy":7},{"dx":0,"dy":8},{"dx":1,"dy":6},{"dx":0,"dy":8},{"dx":-2,"dy":8},{"dx":-6,"dy":12},{"dx":-9,"dy":7},{"dx":-9,"dy":6},{"dx":-16,"dy":6},{"dx":-15,"dy":4},{"dx":-16,"dy":3},{"dx":-35,"dy":6},{"dx":-16,"dy":3},{"dx":-20,"dy":4},{"dx":-26,"dy":4},{"dx":-12,"dy":4},{"dx":-14,"dy":2},{"dx":-17,"dy":3},{"dx":-9,"dy":0},{"dx":-5,"dy":0},{"dx":-5,"dy":0},{"dx":-4,"dy":0},{"dx":-6,"dy":-3},{"dx":-3,"dy":-5},{"dx":-4,"dy":-7},{"dx":-5,"dy":-16},{"dx":-5,"dy":-27},{"dx":-5,"dy":-14},{"dx":-5,"dy":-14},{"dx":-14,"dy":-23},{"dx":-9,"dy":-11},{"dx":-8,"dy":-11},{"dx":-17,"dy":-16},{"dx":-10,"dy":-11},{"dx":-10,"dy":-10},{"dx":-12,"dy":-10},{"dx":-10,"dy":-5},{"dx":-10,"dy":-4},{"dx":-9,"dy":-3},{"dx":-13,"dy":-3},{"dx":-10,"dy":-1},{"dx":-15,"dy":1},{"dx":-9,"dy":3},{"dx":-9,"dy":4},{"dx":-17,"dy":10},{"dx":-10,"dy":8},{"dx":-8,"dy":10},{"dx":-11,"dy":16},{"dx":-6,"dy":11},{"dx":-4,"dy":12},{"dx":-4,"dy":16},{"dx":-1,"dy":10},{"dx":0,"dy":9},{"dx":0,"dy":12},{"dx":1,"dy":7},{"dx":2,"dy":9},{"dx":3,"dy":10},{"dx":1,"dy":5},{"dx":3,"dy":4},{"dx":3,"dy":5},{"dx":5,"dy":5},{"dx":5,"dy":4},{"dx":12,"dy":9},{"dx":8,"dy":5},{"dx":7,"dy":3},{"dx":19,"dy":6},{"dx":11,"dy":3},{"dx":10,"dy":4},{"dx":19,"dy":5},{"dx":13,"dy":4},{"dx":10,"dy":2},{"dx":18,"dy":4},{"dx":13,"dy":2},{"dx":10,"dy":2},{"dx":18,"dy":2},{"dx":12,"dy":0},{"dx":10,"dy":1},{"dx":13,"dy":0},{"dx":11,"dy":0},{"dx":6,"dy":0},{"dx":12,"dy":1},{"dx":5,"dy":0},{"dx":7,"dy":0},{"dx":16,"dy":0},{"dx":6,"dy":0},{"dx":6,"dy":-1},{"dx":5,"dy":-1},{"dx":7,"dy":-2},{"dx":8,"dy":-1},{"dx":14,"dy":-4},{"dx":6,"dy":-3},{"dx":7,"dy":-2},{"dx":12,"dy":-5},{"dx":8,"dy":-4},{"dx":8,"dy":-5},{"dx":6,"dy":-4},{"dx":6,"dy":-7},{"dx":6,"dy":-6},{"dx":6,"dy":-9},{"dx":1,"dy":-5},{"dx":0,"dy":-4},{"dx":0,"dy":-7},{"dx":-2,"dy":-9},{"dx":-3,"dy":-9},{"dx":-6,"dy":-13},{"dx":-4,"dy":-7},{"dx":-3,"dy":-9},{"dx":-6,"dy":-20},{"dx":-5,"dy":-9},{"dx":-5,"dy":-11},{"dx":-12,"dy":-14},{"dx":-9,"dy":-9},{"dx":-11,"dy":-6},{"dx":-23,"dy":-6},{"dx":-12,"dy":-2},{"dx":-17,"dy":-2},{"dx":-30,"dy":-3},{"dx":-20,"dy":-2},{"dx":-22,"dy":-1},{"dx":-26,"dy":-1},{"dx":-27,"dy":-2},{"dx":-13,"dy":-1},{"dx":-15,"dy":-3},{"dx":-20,"dy":-5},{"dx":-11,"dy":-5},{"dx":-13,"dy":-7},{"dx":-13,"dy":-13},{"dx":-6,"dy":-9},{"dx":-5,"dy":-6},{"dx":-5,"dy":-17}],"trial_type":"plugin-moving-dots-2","trial_index":8,"plugin_version":"0.0.1","time_elapsed":54336},{"task":"fixation","rt":712,"stimulus":"<div style=\"font-size:60px;\">+</div>","response":" ","trial_type":"html-keyboard-response","trial_index":9,"plugin_version":"2.1.0","time_elapsed":55050},{"task":"movingdots","control_change":0,"mouse_data":[{"dx":0,"dy":0},{"dx":1,"dy":1},{"dx":1,"dy":1},{"dx":1,"dy":0},{"dx":0,"dy":0},{"dx":1,"dy":1},{"dx":1,"dy":1},{"dx":0,"dy":1},{"dx":3,"dy":3},{"dx":5,"dy":2},{"dx":1,"dy":0},{"dx":9,"dy":6},{"dx":4,"dy":3},{"dx":6,"dy":3},{"dx":5,"dy":3},{"dx":4,"dy":2},{"dx":5,"dy":2},{"dx":0,"dy":0},{"dx":0,"dy":0},{"dx":0,"dy":0},{"dx":0,"dy":0},{"dx":-11,"dy":-2},{"dx":-12,"dy":-3},{"dx":-20,"dy":-4},{"dx":-14,"dy":-2},{"dx":-13,"dy":-1},{"dx":-18,"dy":2},{"dx":-11,"dy":3},{"dx":-7,"dy":2},{"dx":-6,"dy":4},{"dx":-5,"dy":2},{"dx":-4,"dy":2},{"dx":-7,"dy":5},{"dx":0,"dy":0},{"dx":-3,"dy":3},{"dx":-2,"dy":1},{"dx":-2,"dy":3},{"dx":-1,"dy":1},{"dx":-1,"dy":4},{"dx":0,"dy":2},{"dx":0,"dy":6},{"dx":0,"dy":5},{"dx":3,"dy":7},{"dx":2,"dy":4},{"dx":7,"dy":9},{"dx":3,"dy":5},{"dx":5,"dy":4},{"dx":6,"dy":4},{"dx":13,"dy":4},{"dx":10,"dy":2},{"dx":13,"dy":1},{"dx":5,"dy":0},{"dx":7,"dy":-2},{"dx":12,"dy":-3},{"dx":6,"dy":-1},{"dx":4,"dy":-1},{"dx":8,"dy":-1},{"dx":8,"dy":0},{"dx":7,"dy":0},{"dx":12,"dy":0},{"dx":6,"dy":0},{"dx":7,"dy":0},{"dx":13,"dy":-1},{"dx":9,"dy":-3},{"dx":11,"dy":-5},{"dx":16,"dy":-7},{"dx":9,"dy":-6},{"dx":4,"dy":-4},{"dx":9,"dy":-10},{"dx":3,"dy":-9},{"dx":1,"dy":-7},{"dx":-1,"dy":-7},{"dx":-13,"dy":-13},{"dx":-19,"dy":-10},{"dx":-42,"dy":-18},{"dx":-26,"dy":-7},{"dx":-18,"dy":-2},{"dx":-27,"dy":-3},{"dx":-16,"dy":-1},{"dx":-15,"dy":-1},{"dx":-17,"dy":-3},{"dx":-9,"dy":-2},{"dx":-5,"dy":-2},{"dx":-13,"dy":-4},{"dx":-6,"dy":-2},{"dx":-4,"dy":-3},{"dx":-4,"dy":-4},{"dx":-5,"dy":-3},{"dx":-4,"dy":-5},{"dx":-6,"dy":-10},{"dx":-2,"dy":-5},{"dx":-1,"dy":-5},{"dx":0,"dy":-9},{"dx":4,"dy":-16},{"dx":4,"dy":-12},{"dx":13,"dy":-15},{"dx":10,"dy":-9},{"dx":11,"dy":-7},{"dx":16,"dy":-11},{"dx":13,"dy":-4},{"dx":11,"dy":-3},{"dx":16,"dy":-4},{"dx":15,"dy":-1},{"dx":15,"dy":0},{"dx":11,"dy":0},{"dx":7,"dy":1},{"dx":13,"dy":3},{"dx":14,"dy":5},{"dx":8,"dy":6},{"dx":5,"dy":3},{"dx":5,"dy":5},{"dx":8,"dy":11},{"dx":3,"dy":8},{"dx":1,"dy":17},{"dx":1,"dy":11},{"dx":0,"dy":12},{"dx":-1,"dy":22},{"dx":-2,"dy":14},{"dx":-3,"dy":12},{"dx":-3,"dy":20},{"dx":0,"dy":11},{"dx":-2,"dy":12},{"dx":0,"dy":16},{"dx":0,"dy":12},{"dx":1,"dy":6},{"dx":5,"dy":19},{"dx":3,"dy":7},{"dx":4,"dy":7},{"dx":6,"dy":7},{"dx":6,"dy":3},{"dx":12,"dy":5},{"dx":15,"dy":5},{"dx":6,"dy":1},{"dx":8,"dy":3},{"dx":17,"dy":5},{"dx":5,"dy":1},{"dx":7,"dy":2},{"dx":4,"dy":1},{"dx":0,"dy":0},{"dx":1,"dy":1},{"dx":0,"dy":0},{"dx":-3,"dy":2},{"dx":-12,"dy":3},{"dx":-23,"dy":6},{"dx":-17,"dy":5},{"dx":-15,"dy":5},{"dx":-20,"dy":7},{"dx":-28,"dy":6},{"dx":-26,"dy":5},{"dx":-30,"dy":6},{"dx":-14,"dy":2},{"dx":-13,"dy":2},{"dx":-20,"dy":3},{"dx":-12,"dy":0},{"dx":-13,"dy":-2},{"dx":-17,"dy":-4},{"dx":-8,"dy":-3},{"dx":-8,"dy":-5},{"dx":-13,"dy":-8},{"dx":-9,"dy":-7},{"dx":-8,"dy":-7},{"dx":-13,"dy":-12},{"dx":-7,"dy":-6},{"dx":-7,"dy":-8},{"dx":-6,"dy":-9},{"dx":-5,"dy":-6},{"dx":-4,"dy":-7},{"dx":-3,"dy":-7},{"dx":-5,"dy":-21},{"dx":-2,"dy":-9},{"dx":-1,"dy":-8},{"dx":-1,"dy":-6},{"dx":0,"dy":-6},{"dx":0,"dy":-12},{"dx":1,"dy":-9},{"dx":1,"dy":-4},{"dx":3,"dy":-8},{"dx":3,"dy":-7},{"dx":7,"dy":-12},{"dx":9,"dy":-13},{"dx":7,"dy":-6},{"dx":5,"dy":-4},{"dx":14,"dy":-11},{"dx":11,"dy":-6},{"dx":10,"dy":-3},{"dx":9,"dy":-5},{"dx":15,"dy":-5},{"dx":13,"dy":-3},{"dx":14,"dy":-3},{"dx":8,"dy":-2},{"dx":8,"dy":0},{"dx":17,"dy":0},{"dx":5,"dy":0},{"dx":6,"dy":1},{"dx":14,"dy":5},{"dx":9,"dy":3},{"dx":10,"dy":4},{"dx":9,"dy":3},{"dx":13,"dy":3},{"dx":9,"dy":2},{"dx":5,"dy":1},{"dx":13,"dy":5},{"dx":6,"dy":2},{"dx":8,"dy":3},{"dx":7,"dy":2},{"dx":4,"dy":2},{"dx":4,"dy":2},{"dx":6,"dy":0},{"dx":5,"dy":0},{"dx":5,"dy":0},{"dx":12,"dy":-3},{"dx":6,"dy":-2},{"dx":6,"dy":-4},{"dx":12,"dy":-10},{"dx":10,"dy":-8},{"dx":10,"dy":-10},{"dx":10,"dy":-13},{"dx":3,"dy":-5},{"dx":4,"dy":-8},{"dx":1,"dy":-11},{"dx":-2,"dy":-8},{"dx":-6,"dy":-8},{"dx":-15,"dy":-9},{"dx":-11,"dy":-7},{"dx":-17,"dy":-7},{"dx":-29,"dy":-11},{"dx":-22,"dy":-5},{"dx":-16,"dy":-2},{"dx":-23,"dy":0},{"dx":-16,"dy":1},{"dx":-14,"dy":4},{"dx":-20,"dy":9},{"dx":-16,"dy":9},{"dx":-12,"dy":10},{"dx":-13,"dy":17},{"dx":-8,"dy":11},{"dx":-8,"dy":13},{"dx":-14,"dy":22},{"dx":-9,"dy":15},{"dx":-7,"dy":11},{"dx":-12,"dy":21},{"dx":-11,"dy":15},{"dx":-10,"dy":12},{"dx":-14,"dy":15},{"dx":-9,"dy":12},{"dx":-10,"dy":9},{"dx":-10,"dy":15},{"dx":-5,"dy":10},{"dx":-5,"dy":11},{"dx":-6,"dy":17},{"dx":-1,"dy":6},{"dx":-3,"dy":11},{"dx":-1,"dy":20},{"dx":0,"dy":9},{"dx":2,"dy":9},{"dx":3,"dy":7},{"dx":4,"dy":5},{"dx":6,"dy":4},{"dx":17,"dy":7},{"dx":8,"dy":3},{"dx":11,"dy":3},{"dx":18,"dy":5},{"dx":10,"dy":3},{"dx":12,"dy":3},{"dx":23,"dy":5},{"dx":11,"dy":3},{"dx":11,"dy":2},{"dx":16,"dy":1},{"dx":11,"dy":1},{"dx":6,"dy":0},{"dx":7,"dy":0},{"dx":6,"dy":0},{"dx":6,"dy":0},{"dx":10,"dy":0},{"dx":6,"dy":-1},{"dx":7,"dy":-2},{"dx":15,"dy":-4},{"dx":8,"dy":-4},{"dx":9,"dy":-4},{"dx":15,"dy":-10},{"dx":11,"dy":-6},{"dx":10,"dy":-7},{"dx":14,"dy":-12},{"dx":11,"dy":-11},{"dx":10,"dy":-10},{"dx":10,"dy":-12},{"dx":4,"dy":-5},{"dx":3,"dy":-5},{"dx":3,"dy":-5},{"dx":0,"dy":-1},{"dx":1,"dy":-1},{"dx":0,"dy":-3},{"dx":1,"dy":-1},{"dx":0,"dy":-1},{"dx":1,"dy":-6},{"dx":0,"dy":-1},{"dx":3,"dy":-6},{"dx":4,"dy":-6},{"dx":3,"dy":-5},{"dx":4,"dy":-6},{"dx":7,"dy":-16},{"dx":3,"dy":-7},{"dx":1,"dy":-5},{"dx":1,"dy":-7},{"dx":-3,"dy":-4},{"dx":-10,"dy":-6},{"dx":-17,"dy":-7},{"dx":-15,"dy":-4},{"dx":-14,"dy":-4},{"dx":-20,"dy":-5},{"dx":-13,"dy":-4},{"dx":-11,"dy":-3},{"dx":-15,"dy":-7},{"dx":-10,"dy":-4},{"dx":-11,"dy":-4},{"dx":-8,"dy":-5},{"dx":-11,"dy":-6},{"dx":-8,"dy":-6},{"dx":-12,"dy":-10},{"dx":-7,"dy":-5},{"dx":-5,"dy":-5},{"dx":-5,"dy":-5},{"dx":-3,"dy":-4},{"dx":-4,"dy":-5},{"dx":-7,"dy":-8},{"dx":-4,"dy":-4},{"dx":-6,"dy":-3},{"dx":-5,"dy":-3},{"dx":-4,"dy":-2},{"dx":-6,"dy":-1},{"dx":-16,"dy":-1},{"dx":-10,"dy":0},{"dx":-10,"dy":2},{"dx":-13,"dy":7},{"dx":-9,"dy":6},{"dx":-8,"dy":8},{"dx":-12,"dy":12},{"dx":-8,"dy":10},{"dx":-7,"dy":10},{"dx":-12,"dy":16},{"dx":-7,"dy":10},{"dx":-5,"dy":12},{"dx":-7,"dy":19},{"dx":-5,"dy":12},{"dx":-4,"dy":11},{"dx":-3,"dy":17},{"dx":-1,"dy":7},{"dx":0,"dy":7},{"dx":0,"dy":8},{"dx":1,"dy":5},{"dx":2,"dy":5},{"dx":5,"dy":8},{"dx":6,"dy":4},{"dx":6,"dy":1},{"dx":8,"dy":2},{"dx":11,"dy":1},{"dx":12,"dy":1},{"dx":19,"dy":-1},{"dx":11,"dy":0},{"dx":14,"dy":0},{"dx":21,"dy":2},{"dx":12,"dy":1},{"dx":12,"dy":2},{"dx":21,"dy":4},{"dx":11,"dy":2},{"dx":12,"dy":2},{"dx":15,"dy":3},{"dx":8,"dy":3},{"dx":8,"dy":2},{"dx":13,"dy":5},{"dx":7,"dy":4},{"dx":6,"dy":4},{"dx":6,"dy":5},{"dx":4,"dy":4},{"dx":5,"dy":3},{"dx":14,"dy":5},{"dx":8,"dy":2},{"dx":8,"dy":0},{"dx":21,"dy":-2},{"dx":15,"dy":-5},{"dx":21,"dy":-8},{"dx":23,"dy":-11},{"dx":28,"dy":-15},{"dx":21,"dy":-11},{"dx":20,"dy":-14},{"dx":10,"dy":-8},{"dx":9,"dy":-7},{"dx":5,"dy":-4},{"dx":3,"dy":-5},{"dx":3,"dy":-5},{"dx":0,"dy":-7},{"dx":-6,"dy":-13},{"dx":-5,"dy":-7},{"dx":-4,"dy":-5},{"dx":-12,"dy":-18},{"dx":-7,"dy":-12},{"dx":-8,"dy":-12},{"dx":-13,"dy":-14},{"dx":-11,"dy":-11},{"dx":-20,"dy":-17},{"dx":-11,"dy":-8},{"dx":-11,"dy":-8},{"dx":-14,"dy":-6},{"dx":-21,"dy":-7},{"dx":-13,"dy":-3},{"dx":-17,"dy":-2},{"dx":-21,"dy":0},{"dx":-14,"dy":1},{"dx":-15,"dy":3},{"dx":-22,"dy":5},{"dx":-15,"dy":4},{"dx":-16,"dy":5},{"dx":-18,"dy":7},{"dx":-15,"dy":5},{"dx":-16,"dy":4},{"dx":-18,"dy":5},{"dx":-13,"dy":2},{"dx":-12,"dy":2},{"dx":-15,"dy":2},{"dx":-9,"dy":1},{"dx":-12,"dy":1},{"dx":-9,"dy":0},{"dx":-13,"dy":2},{"dx":-7,"dy":2},{"dx":-6,"dy":3},{"dx":-4,"dy":2},{"dx":-4,"dy":3},{"dx":-3,"dy":11},{"dx":0,"dy":6},{"dx":0,"dy":6},{"dx":1,"dy":7},{"dx":2,"dy":10},{"dx":0,"dy":9},{"dx":3,"dy":18},{"dx":1,"dy":9},{"dx":1,"dy":11},{"dx":2,"dy":16},{"dx":0,"dy":9},{"dx":1,"dy":9},{"dx":2,"dy":8},{"dx":1,"dy":8},{"dx":2,"dy":7},{"dx":5,"dy":11},{"dx":4,"dy":5},{"dx":5,"dy":5},{"dx":14,"dy":7},{"dx":9,"dy":3},{"dx":10,"dy":2},{"dx":22,"dy":3},{"dx":13,"dy":0},{"dx":13,"dy":-1}],"trial_type":"plugin-moving-dots-2","trial_index":10,"plugin_version":"0.0.1","time_elapsed":62554},{"task":"fixation","rt":542,"stimulus":"<div style=\"font-size:60px;\">+</div>","response":" ","trial_type":"html-keyboard-response","trial_index":11,"plugin_version":"2.1.0","time_elapsed":63098},{"task":"movingdots","control_change":0,"mouse_data":[{"dx":0,"dy":0},{"dx":0,"dy":-1},{"dx":0,"dy":0},{"dx":0,"dy":0},{"dx":0,"dy":-1},{"dx":4,"dy":-2},{"dx":6,"dy":0},{"dx":9,"dy":0},{"dx":5,"dy":0},{"dx":6,"dy":0},{"dx":8,"dy":0},{"dx":7,"dy":-1},{"dx":9,"dy":0},{"dx":19,"dy":1},{"dx":10,"dy":3},{"dx":5,"dy":1},{"dx":14,"dy":9},{"dx":9,"dy":6},{"dx":9,"dy":7},{"dx":11,"dy":12},{"dx":5,"dy":6},{"dx":5,"dy":5},{"dx":4,"dy":6},{"dx":3,"dy":5},{"dx":2,"dy":5},{"dx":0,"dy":6},{"dx":-2,"dy":5},{"dx":-7,"dy":8},{"dx":-16,"dy":12},{"dx":-13,"dy":8},{"dx":-12,"dy":6},{"dx":-18,"dy":11},{"dx":-9,"dy":7},{"dx":-9,"dy":6},{"dx":-15,"dy":10},{"dx":-10,"dy":6},{"dx":-10,"dy":5},{"dx":-9,"dy":6},{"dx":-5,"dy":3},{"dx":-6,"dy":2},{"dx":-7,"dy":1},{"dx":-6,"dy":0},{"dx":-5,"dy":-1},{"dx":-7,"dy":-4},{"dx":-3,"dy":-5},{"dx":-2,"dy":-10},{"dx":-1,"dy":-17},{"dx":0,"dy":-11},{"dx":1,"dy":-15},{"dx":1,"dy":-18},{"dx":0,"dy":-8},{"dx":0,"dy":-8},{"dx":-1,"dy":-7},{"dx":-2,"dy":-9},{"dx":-2,"dy":-10},{"dx":-10,"dy":-15},{"dx":-6,"dy":-7},{"dx":-6,"dy":-9},{"dx":-11,"dy":-12},{"dx":-8,"dy":-8},{"dx":-5,"dy":-4},{"dx":-7,"dy":-6},{"dx":-6,"dy":-5},{"dx":-5,"dy":-6},{"dx":-10,"dy":-11},{"dx":-3,"dy":-4},{"dx":-6,"dy":-4},{"dx":-6,"dy":-4},{"dx":-6,"dy":-4},{"dx":-6,"dy":-3},{"dx":-13,"dy":-4},{"dx":-7,"dy":0},{"dx":-6,"dy":0},{"dx":-8,"dy":2},{"dx":-6,"dy":2},{"dx":-12,"dy":6},{"dx":-12,"dy":8},{"dx":-8,"dy":7},{"dx":-9,"dy":7},{"dx":-10,"dy":11},{"dx":-4,"dy":4},{"dx":-5,"dy":8},{"dx":-4,"dy":14},{"dx":0,"dy":6},{"dx":1,"dy":5},{"dx":3,"dy":5},{"dx":5,"dy":4},{"dx":12,"dy":7},{"dx":19,"dy":6},{"dx":11,"dy":5},{"dx":12,"dy":6},{"dx":20,"dy":10},{"dx":10,"dy":7},{"dx":10,"dy":7},{"dx":16,"dy":12},{"dx":10,"dy":9},{"dx":9,"dy":9},{"dx":10,"dy":12},{"dx":9,"dy":7},{"dx":11,"dy":7},{"dx":12,"dy":10},{"dx":9,"dy":5},{"dx":9,"dy":5},{"dx":15,"dy":5},{"dx":5,"dy":3},{"dx":7,"dy":2},{"dx":11,"dy":5},{"dx":8,"dy":2},{"dx":8,"dy":2},{"dx":9,"dy":3},{"dx":6,"dy":2},{"dx":6,"dy":1},{"dx":16,"dy":1},{"dx":10,"dy":0},{"dx":11,"dy":-3},{"dx":19,"dy":-7},{"dx":11,"dy":-7},{"dx":11,"dy":-12},{"dx":16,"dy":-17},{"dx":9,"dy":-11},{"dx":6,"dy":-7},{"dx":8,"dy":-11},{"dx":4,"dy":-6},{"dx":6,"dy":-5},{"dx":6,"dy":-6},{"dx":7,"dy":-6},{"dx":6,"dy":-6},{"dx":11,"dy":-15},{"dx":3,"dy":-5},{"dx":5,"dy":-7},{"dx":9,"dy":-12},{"dx":4,"dy":-9},{"dx":2,"dy":-10},{"dx":-1,"dy":-18},{"dx":-5,"dy":-10},{"dx":-8,"dy":-11},{"dx":-13,"dy":-15},{"dx":-8,"dy":-10},{"dx":-8,"dy":-8},{"dx":-7,"dy":-6},{"dx":-6,"dy":-7},{"dx":-6,"dy":-7},{"dx":-8,"dy":-13},{"dx":-3,"dy":-8},{"dx":-2,"dy":-6},{"dx":-3,"dy":-13},{"dx":0,"dy":-12},{"dx":1,"dy":-6},{"dx":5,"dy":-18},{"dx":3,"dy":-5},{"dx":3,"dy":-5},{"dx":3,"dy":-4},{"dx":5,"dy":-4},{"dx":10,"dy":-5},{"dx":7,"dy":-4},{"dx":5,"dy":-2},{"dx":3,"dy":-2},{"dx":2,"dy":-1},{"dx":1,"dy":0},{"dx":0,"dy":-1},{"dx":-6,"dy":-6},{"dx":-13,"dy":-4},{"dx":-15,"dy":-5},{"dx":-27,"dy":-8},{"dx":-15,"dy":-5},{"dx":-13,"dy":-4},{"dx":-23,"dy":-6},{"dx":-14,"dy":-4},{"dx":-14,"dy":-2},{"dx":-22,"dy":-1},{"dx":-11,"dy":0},{"dx":-14,"dy":0},{"dx":-25,"dy":2},{"dx":-14,"dy":3},{"dx":-16,"dy":3},{"dx":-23,"dy":2},{"dx":-11,"dy":3},{"dx":-11,"dy":2},{"dx":-16,"dy":2},{"dx":-12,"dy":3},{"dx":-9,"dy":3},{"dx":-12,"dy":4},{"dx":-7,"dy":2},{"dx":-5,"dy":3},{"dx":-7,"dy":4},{"dx":-5,"dy":3},{"dx":-5,"dy":6},{"dx":-8,"dy":12},{"dx":-3,"dy":7},{"dx":-3,"dy":8},{"dx":-2,"dy":13},{"dx":-1,"dy":12},{"dx":-2,"dy":8},{"dx":-2,"dy":10},{"dx":-1,"dy":15},{"dx":0,"dy":12},{"dx":0,"dy":14},{"dx":0,"dy":11},{"dx":2,"dy":10},{"dx":7,"dy":15},{"dx":6,"dy":9},{"dx":7,"dy":8},{"dx":12,"dy":12},{"dx":10,"dy":7},{"dx":10,"dy":6},{"dx":9,"dy":8},{"dx":5,"dy":6},{"dx":4,"dy":5},{"dx":4,"dy":11},{"dx":0,"dy":7},{"dx":0,"dy":8},{"dx":-7,"dy":14},{"dx":-6,"dy":9},{"dx":-8,"dy":12},{"dx":-10,"dy":14},{"dx":-7,"dy":10},{"dx":-7,"dy":9},{"dx":-6,"dy":8},{"dx":-4,"dy":9},{"dx":-4,"dy":7},{"dx":-6,"dy":11},{"dx":-1,"dy":6},{"dx":0,"dy":1},{"dx":1,"dy":11},{"dx":2,"dy":4},{"dx":4,"dy":4},{"dx":5,"dy":5},{"dx":11,"dy":8},{"dx":10,"dy":6},{"dx":17,"dy":10},{"dx":11,"dy":6},{"dx":12,"dy":4},{"dx":18,"dy":5},{"dx":10,"dy":1},{"dx":9,"dy":0},{"dx":16,"dy":0},{"dx":6,"dy":-2},{"dx":7,"dy":-1},{"dx":10,"dy":-3},{"dx":6,"dy":-2},{"dx":8,"dy":0},{"dx":14,"dy":-4},{"dx":9,"dy":-5},{"dx":11,"dy":-6},{"dx":18,"dy":-13},{"dx":11,"dy":-9},{"dx":12,"dy":-9},{"dx":20,"dy":-10},{"dx":10,"dy":-7},{"dx":12,"dy":-9},{"dx":17,"dy":-11},{"dx":10,"dy":-9},{"dx":8,"dy":-7},{"dx":11,"dy":-16},{"dx":5,"dy":-12},{"dx":5,"dy":-10},{"dx":3,"dy":-12},{"dx":3,"dy":-14},{"dx":0,"dy":-12},{"dx":0,"dy":-8},{"dx":-1,"dy":-7},{"dx":-2,"dy":-7},{"dx":-1,"dy":-16},{"dx":0,"dy":-8},{"dx":0,"dy":-6},{"dx":0,"dy":-5},{"dx":0,"dy":-7},{"dx":0,"dy":-6},{"dx":-1,"dy":-5},{"dx":0,"dy":-7},{"dx":0,"dy":-6},{"dx":3,"dy":-8},{"dx":3,"dy":-4},{"dx":4,"dy":-3},{"dx":5,"dy":-3},{"dx":5,"dy":-2},{"dx":7,"dy":-2},{"dx":11,"dy":-1},{"dx":11,"dy":0},{"dx":6,"dy":0},{"dx":7,"dy":1},{"dx":9,"dy":2},{"dx":9,"dy":2},{"dx":6,"dy":2},{"dx":10,"dy":5},{"dx":5,"dy":4},{"dx":5,"dy":4},{"dx":6,"dy":9},{"dx":3,"dy":6},{"dx":3,"dy":5},{"dx":0,"dy":16},{"dx":-4,"dy":11},{"dx":-8,"dy":15},{"dx":-13,"dy":17},{"dx":-12,"dy":14},{"dx":-11,"dy":11},{"dx":-17,"dy":15},{"dx":-14,"dy":8},{"dx":-16,"dy":7},{"dx":-20,"dy":8},{"dx":-12,"dy":3},{"dx":-11,"dy":2},{"dx":-14,"dy":0},{"dx":-12,"dy":-4},{"dx":-11,"dy":-7},{"dx":-15,"dy":-14},{"dx":-10,"dy":-12},{"dx":-9,"dy":-13},{"dx":-17,"dy":-27},{"dx":-11,"dy":-21},{"dx":-8,"dy":-15},{"dx":-13,"dy":-25},{"dx":-11,"dy":-19},{"dx":-8,"dy":-14},{"dx":-11,"dy":-15},{"dx":-8,"dy":-11},{"dx":-9,"dy":-11},{"dx":-17,"dy":-15},{"dx":-11,"dy":-8},{"dx":-10,"dy":-9},{"dx":-17,"dy":-13},{"dx":-12,"dy":-8},{"dx":-12,"dy":-8},{"dx":-18,"dy":-7},{"dx":-13,"dy":-2},{"dx":-10,"dy":-2},{"dx":-19,"dy":-1},{"dx":-13,"dy":0},{"dx":-10,"dy":2},{"dx":-19,"dy":7},{"dx":-11,"dy":6},{"dx":-11,"dy":7},{"dx":-13,"dy":10},{"dx":-8,"dy":7},{"dx":-7,"dy":9},{"dx":-7,"dy":11},{"dx":-4,"dy":9},{"dx":-3,"dy":8},{"dx":-3,"dy":8},{"dx":-1,"dy":7},{"dx":0,"dy":9},{"dx":1,"dy":18},{"dx":2,"dy":9},{"dx":1,"dy":8},{"dx":3,"dy":15},{"dx":2,"dy":11},{"dx":4,"dy":9},{"dx":3,"dy":9},{"dx":5,"dy":10},{"dx":4,"dy":9},{"dx":9,"dy":14},{"dx":5,"dy":8},{"dx":9,"dy":9},{"dx":15,"dy":14},{"dx":9,"dy":8},{"dx":12,"dy":5},{"dx":16,"dy":8},{"dx":10,"dy":3},{"dx":12,"dy":2},{"dx":20,"dy":1},{"dx":5,"dy":1},{"dx":9,"dy":1},{"dx":19,"dy":4},{"dx":11,"dy":2},{"dx":9,"dy":4},{"dx":6,"dy":3},{"dx":5,"dy":3},{"dx":5,"dy":3},{"dx":8,"dy":8},{"dx":4,"dy":3},{"dx":2,"dy":4},{"dx":3,"dy":5},{"dx":0,"dy":1},{"dx":2,"dy":6},{"dx":-6,"dy":8},{"dx":-10,"dy":5},{"dx":-10,"dy":4},{"dx":-21,"dy":7},{"dx":-18,"dy":3},{"dx":-15,"dy":2},{"dx":-23,"dy":4},{"dx":-9,"dy":1},{"dx":-8,"dy":0},{"dx":-5,"dy":0},{"dx":-3,"dy":0},{"dx":-4,"dy":-1},{"dx":-7,"dy":-6},{"dx":-3,"dy":-5},{"dx":-3,"dy":-7},{"dx":-2,"dy":-15},{"dx":1,"dy":-14},{"dx":5,"dy":-13},{"dx":12,"dy":-17},{"dx":10,"dy":-12},{"dx":18,"dy":-12},{"dx":24,"dy":-11},{"dx":20,"dy":-5},{"dx":23,"dy":-4},{"dx":20,"dy":0},{"dx":15,"dy":1},{"dx":14,"dy":2},{"dx":16,"dy":7},{"dx":11,"dy":5},{"dx":9,"dy":7},{"dx":13,"dy":9},{"dx":4,"dy":4},{"dx":10,"dy":7},{"dx":12,"dy":7},{"dx":5,"dy":4},{"dx":6,"dy":3},{"dx":6,"dy":3},{"dx":6,"dy":2},{"dx":9,"dy":2},{"dx":14,"dy":-1},{"dx":9,"dy":-3},{"dx":12,"dy":-5},{"dx":18,"dy":-8},{"dx":5,"dy":-3},{"dx":6,"dy":-4},{"dx":11,"dy":-4},{"dx":7,"dy":-2},{"dx":5,"dy":-3},{"dx":5,"dy":-4},{"dx":5,"dy":-5},{"dx":3,"dy":-5},{"dx":6,"dy":-7},{"dx":4,"dy":-5},{"dx":5,"dy":-6},{"dx":8,"dy":-11},{"dx":6,"dy":-11},{"dx":3,"dy":-6},{"dx":6,"dy":-14},{"dx":2,"dy":-7},{"dx":0,"dy":-7},{"dx":0,"dy":-8},{"dx":-3,"dy":-7},{"dx":-8,"dy":-9},{"dx":-10,"dy":-9},{"dx":-9,"dy":-7},{"dx":-8,"dy":-6},{"dx":-14,"dy":-13},{"dx":-7,"dy":-8},{"dx":-5,"dy":-7},{"dx":-11,"dy":-15},{"dx":-7,"dy":-9},{"dx":-10,"dy":-12},{"dx":-19,"dy":-14},{"dx":-17,"dy":-7},{"dx":-17,"dy":-7},{"dx":-22,"dy":-9},{"dx":-14,"dy":-6}],"trial_type":"plugin-moving-dots-2","trial_index":12,"plugin_version":"0.0.1","time_elapsed":70605},{"task":"fixation","rt":621,"stimulus":"<div style=\"font-size:60px;\">+</div>","response":" ","trial_type":"html-keyboard-response","trial_index":13,"plugin_version":"2.1.0","time_elapsed":71228},{"task":"movingdots","control_change":0,"mouse_data":[{"dx":0,"dy":0},{"dx":13,"dy":8},{"dx":11,"dy":6},{"dx":9,"dy":6},{"dx":6,"dy":4},{"dx":4,"dy":3},{"dx":6,"dy":6},{"dx":1,"dy":1},{"dx":4,"dy":3},{"dx":1,"dy":1},{"dx":4,"dy":2},{"dx":0,"dy":1},{"dx":4,"dy":3},{"dx":3,"dy":4},{"dx":2,"dy":3},{"dx":2,"dy":6},{"dx":3,"dy":6},{"dx":2,"dy":6},{"dx":2,"dy":5},{"dx":2,"dy":6},{"dx":1,"dy":5},{"dx":1,"dy":5},{"dx":0,"dy":1},{"dx":0,"dy":1},{"dx":-1,"dy":5},{"dx":-6,"dy":4},{"dx":-18,"dy":5},{"dx":-16,"dy":3},{"dx":-28,"dy":4},{"dx":-15,"dy":2},{"dx":-6,"dy":2},{"dx":-11,"dy":2},{"dx":-6,"dy":2},{"dx":-6,"dy":0},{"dx":-8,"dy":1},{"dx":-8,"dy":1},{"dx":-6,"dy":0},{"dx":-11,"dy":1},{"dx":-8,"dy":0},{"dx":-5,"dy":0},{"dx":-5,"dy":-2},{"dx":-5,"dy":-1},{"dx":-3,"dy":-3},{"dx":-6,"dy":-7},{"dx":-3,"dy":-5},{"dx":-4,"dy":-6},{"dx":-6,"dy":-10},{"dx":-8,"dy":-12},{"dx":-7,"dy":-11},{"dx":-11,"dy":-13},{"dx":-8,"dy":-7},{"dx":-8,"dy":-7},{"dx":-7,"dy":-7},{"dx":-4,"dy":-5},{"dx":-4,"dy":-6},{"dx":-5,"dy":-10},{"dx":-2,"dy":-5},{"dx":0,"dy":-1},{"dx":-1,"dy":-11},{"dx":0,"dy":-7},{"dx":2,"dy":-5},{"dx":2,"dy":-7},{"dx":4,"dy":-6},{"dx":3,"dy":-5},{"dx":9,"dy":-9},{"dx":6,"dy":-5},{"dx":5,"dy":-4},{"dx":5,"dy":-3},{"dx":6,"dy":-4},{"dx":7,"dy":-4},{"dx":12,"dy":-6},{"dx":6,"dy":-4},{"dx":5,"dy":-3},{"dx":3,"dy":-3},{"dx":4,"dy":-3},{"dx":4,"dy":-4},{"dx":8,"dy":-10},{"dx":4,"dy":-9},{"dx":3,"dy":-5},{"dx":11,"dy":-16},{"dx":6,"dy":-9},{"dx":5,"dy":-8},{"dx":6,"dy":-5},{"dx":5,"dy":-5},{"dx":4,"dy":-3},{"dx":9,"dy":-4},{"dx":5,"dy":-1},{"dx":5,"dy":-2},{"dx":6,"dy":0},{"dx":7,"dy":-1},{"dx":6,"dy":-1},{"dx":11,"dy":-3},{"dx":5,"dy":-2},{"dx":8,"dy":-2},{"dx":6,"dy":-2},{"dx":6,"dy":-3},{"dx":5,"dy":-2},{"dx":9,"dy":-3},{"dx":5,"dy":-1},{"dx":4,"dy":0},{"dx":4,"dy":0},{"dx":4,"dy":1},{"dx":4,"dy":2},{"dx":11,"dy":8},{"dx":7,"dy":6},{"dx":10,"dy":7},{"dx":13,"dy":15},{"dx":9,"dy":10},{"dx":10,"dy":10},{"dx":16,"dy":15},{"dx":9,"dy":11},{"dx":6,"dy":10},{"dx":10,"dy":14},{"dx":5,"dy":10},{"dx":4,"dy":10},{"dx":5,"dy":15},{"dx":3,"dy":8},{"dx":2,"dy":7},{"dx":0,"dy":8},{"dx":0,"dy":7},{"dx":0,"dy":8},{"dx":-4,"dy":16},{"dx":-2,"dy":9},{"dx":-3,"dy":10},{"dx":-5,"dy":13},{"dx":-5,"dy":11},{"dx":-5,"dy":10},{"dx":-9,"dy":17},{"dx":-8,"dy":9},{"dx":-9,"dy":9},{"dx":-12,"dy":12},{"dx":-13,"dy":6},{"dx":-12,"dy":6},{"dx":-16,"dy":8},{"dx":-10,"dy":4},{"dx":-12,"dy":4},{"dx":-11,"dy":2},{"dx":-8,"dy":2},{"dx":-9,"dy":1},{"dx":-12,"dy":0},{"dx":-6,"dy":-1},{"dx":-5,"dy":-2},{"dx":-7,"dy":-3},{"dx":-13,"dy":-3},{"dx":-14,"dy":-2},{"dx":-13,"dy":-4},{"dx":-6,"dy":-2},{"dx":-12,"dy":-4},{"dx":-13,"dy":-6},{"dx":-8,"dy":-5},{"dx":-6,"dy":-7},{"dx":-10,"dy":-14},{"dx":-7,"dy":-7},{"dx":-7,"dy":-7},{"dx":-11,"dy":-9},{"dx":-10,"dy":-5},{"dx":-11,"dy":-3},{"dx":-18,"dy":-4},{"dx":-11,"dy":-2},{"dx":-14,"dy":-4},{"dx":-18,"dy":-3},{"dx":-11,"dy":-3},{"dx":-10,"dy":-4},{"dx":-15,"dy":-6},{"dx":-8,"dy":-4},{"dx":-10,"dy":-5},{"dx":-15,"dy":-7},{"dx":-12,"dy":-4},{"dx":-10,"dy":-2},{"dx":-13,"dy":-2},{"dx":-6,"dy":0},{"dx":-6,"dy":2},{"dx":-5,"dy":3},{"dx":-5,"dy":4},{"dx":-4,"dy":6},{"dx":-7,"dy":14},{"dx":-3,"dy":8},{"dx":-1,"dy":7},{"dx":0,"dy":15},{"dx":1,"dy":10},{"dx":1,"dy":12},{"dx":4,"dy":15},{"dx":5,"dy":11},{"dx":6,"dy":11},{"dx":9,"dy":8},{"dx":6,"dy":6},{"dx":5,"dy":3},{"dx":7,"dy":2},{"dx":13,"dy":1},{"dx":5,"dy":0},{"dx":17,"dy":-10},{"dx":10,"dy":-10},{"dx":11,"dy":-11},{"dx":14,"dy":-21},{"dx":8,"dy":-22},{"dx":5,"dy":-15},{"dx":5,"dy":-29},{"dx":2,"dy":-18},{"dx":1,"dy":-14},{"dx":2,"dy":-25},{"dx":0,"dy":-14},{"dx":0,"dy":-10},{"dx":-3,"dy":-18},{"dx":-2,"dy":-12},{"dx":-3,"dy":-6},{"dx":-5,"dy":-14},{"dx":-3,"dy":-8},{"dx":-3,"dy":-8},{"dx":-2,"dy":-9},{"dx":-2,"dy":-8},{"dx":-1,"dy":-5},{"dx":-1,"dy":-9},{"dx":0,"dy":-6},{"dx":0,"dy":-5},{"dx":2,"dy":-5},{"dx":3,"dy":-6},{"dx":10,"dy":-9},{"dx":17,"dy":-10},{"dx":14,"dy":-6},{"dx":11,"dy":-6},{"dx":21,"dy":-6},{"dx":11,"dy":-4},{"dx":11,"dy":-2},{"dx":18,"dy":-1},{"dx":12,"dy":0},{"dx":9,"dy":-1},{"dx":12,"dy":-1},{"dx":13,"dy":-2},{"dx":13,"dy":0},{"dx":15,"dy":-3},{"dx":12,"dy":-2},{"dx":11,"dy":0},{"dx":9,"dy":-1},{"dx":5,"dy":0},{"dx":6,"dy":0},{"dx":10,"dy":4},{"dx":7,"dy":3},{"dx":5,"dy":4},{"dx":6,"dy":4},{"dx":4,"dy":4},{"dx":4,"dy":3},{"dx":7,"dy":6},{"dx":4,"dy":4},{"dx":3,"dy":5},{"dx":4,"dy":6},{"dx":4,"dy":4},{"dx":5,"dy":6},{"dx":13,"dy":12},{"dx":10,"dy":7},{"dx":9,"dy":9},{"dx":16,"dy":11},{"dx":11,"dy":7},{"dx":11,"dy":6},{"dx":13,"dy":6},{"dx":10,"dy":4},{"dx":10,"dy":2},{"dx":6,"dy":2},{"dx":5,"dy":4},{"dx":4,"dy":5},{"dx":6,"dy":12},{"dx":4,"dy":7},{"dx":4,"dy":8},{"dx":2,"dy":8},{"dx":1,"dy":9},{"dx":0,"dy":9},{"dx":-3,"dy":14},{"dx":-4,"dy":10},{"dx":-4,"dy":10},{"dx":-10,"dy":14},{"dx":-8,"dy":9},{"dx":-8,"dy":10},{"dx":-12,"dy":14},{"dx":-10,"dy":9},{"dx":-8,"dy":9},{"dx":-14,"dy":13},{"dx":-11,"dy":8},{"dx":-20,"dy":12},{"dx":-23,"dy":15},{"dx":-12,"dy":9},{"dx":-17,"dy":9},{"dx":-23,"dy":10},{"dx":-25,"dy":8},{"dx":-22,"dy":2},{"dx":-49,"dy":0},{"dx":-26,"dy":-5},{"dx":-23,"dy":-7},{"dx":-18,"dy":-10},{"dx":-4,"dy":-4},{"dx":-5,"dy":-7},{"dx":-1,"dy":-14},{"dx":9,"dy":-11},{"dx":18,"dy":-17},{"dx":28,"dy":-28},{"dx":23,"dy":-16},{"dx":17,"dy":-14},{"dx":17,"dy":-16},{"dx":9,"dy":-8},{"dx":5,"dy":-6},{"dx":2,"dy":-4},{"dx":1,"dy":-6},{"dx":-6,"dy":-9},{"dx":-17,"dy":-13},{"dx":-29,"dy":-10},{"dx":-28,"dy":-10},{"dx":-51,"dy":-10},{"dx":-23,"dy":-6},{"dx":-21,"dy":-5},{"dx":-24,"dy":-8},{"dx":-16,"dy":-5},{"dx":-15,"dy":-4},{"dx":-19,"dy":-9},{"dx":-12,"dy":-5},{"dx":-10,"dy":-5},{"dx":-14,"dy":-8},{"dx":-12,"dy":-6},{"dx":-11,"dy":-7},{"dx":-14,"dy":-9},{"dx":-9,"dy":-6},{"dx":-5,"dy":-5},{"dx":-5,"dy":-3},{"dx":-4,"dy":-4},{"dx":-1,"dy":0},{"dx":-2,"dy":-4},{"dx":-1,"dy":-6},{"dx":2,"dy":-5},{"dx":11,"dy":-14},{"dx":9,"dy":-10},{"dx":11,"dy":-8},{"dx":14,"dy":-9},{"dx":11,"dy":-5},{"dx":12,"dy":-6},{"dx":14,"dy":-5},{"dx":16,"dy":-6},{"dx":12,"dy":-4},{"dx":16,"dy":-6},{"dx":8,"dy":-3},{"dx":6,"dy":-2},{"dx":5,"dy":-2},{"dx":9,"dy":-2},{"dx":7,"dy":-1},{"dx":5,"dy":-1},{"dx":6,"dy":0},{"dx":5,"dy":0},{"dx":6,"dy":2},{"dx":10,"dy":3},{"dx":5,"dy":3},{"dx":7,"dy":3},{"dx":5,"dy":3},{"dx":5,"dy":2},{"dx":6,"dy":3},{"dx":14,"dy":6},{"dx":5,"dy":2},{"dx":8,"dy":4},{"dx":14,"dy":6},{"dx":10,"dy":2},{"dx":9,"dy":3},{"dx":16,"dy":6},{"dx":14,"dy":4},{"dx":13,"dy":4},{"dx":19,"dy":7},{"dx":14,"dy":3},{"dx":12,"dy":4},{"dx":13,"dy":5},{"dx":9,"dy":5},{"dx":8,"dy":5},{"dx":7,"dy":5},{"dx":6,"dy":5},{"dx":5,"dy":6},{"dx":9,"dy":11},{"dx":6,"dy":5},{"dx":5,"dy":4},{"dx":6,"dy":4},{"dx":4,"dy":3},{"dx":5,"dy":4},{"dx":8,"dy":5},{"dx":6,"dy":2},{"dx":6,"dy":2},{"dx":6,"dy":3},{"dx":6,"dy":2},{"dx":4,"dy":2},{"dx":11,"dy":5},{"dx":6,"dy":3},{"dx":4,"dy":3},{"dx":3,"dy":2},{"dx":4,"dy":5},{"dx":3,"dy":3},{"dx":5,"dy":8},{"dx":2,"dy":5},{"dx":1,"dy":5},{"dx":0,"dy":5},{"dx":-1,"dy":6},{"dx":-1,"dy":6},{"dx":-5,"dy":17},{"dx":-3,"dy":11},{"dx":-3,"dy":11},{"dx":-6,"dy":14},{"dx":-4,"dy":11},{"dx":-3,"dy":10},{"dx":-4,"dy":15},{"dx":-2,"dy":7},{"dx":-2,"dy":8},{"dx":-2,"dy":7},{"dx":-2,"dy":5},{"dx":-4,"dy":6},{"dx":-8,"dy":8},{"dx":-4,"dy":4},{"dx":-4,"dy":3},{"dx":-7,"dy":5},{"dx":-8,"dy":4},{"dx":-7,"dy":3},{"dx":-14,"dy":7},{"dx":-5,"dy":2},{"dx":-6,"dy":3},{"dx":-8,"dy":3},{"dx":-10,"dy":3},{"dx":-10,"dy":1},{"dx":-16,"dy":2},{"dx":-15,"dy":1},{"dx":-10,"dy":1},{"dx":-14,"dy":1},{"dx":-9,"dy":1},{"dx":-10,"dy":1},{"dx":-8,"dy":1},{"dx":-3,"dy":1},{"dx":-1,"dy":0},{"dx":-1,"dy":1},{"dx":-1,"dy":0},{"dx":0,"dy":0},{"dx":-1,"dy":0},{"dx":-1,"dy":0},{"dx":-4,"dy":-2},{"dx":-14,"dy":-3},{"dx":-12,"dy":-2},{"dx":-10,"dy":-1},{"dx":-22,"dy":0},{"dx":-13,"dy":0},{"dx":-5,"dy":0},{"dx":-16,"dy":0},{"dx":-11,"dy":0},{"dx":-11,"dy":0},{"dx":-14,"dy":-2},{"dx":-10,"dy":-3},{"dx":-11,"dy":-5},{"dx":-13,"dy":-9},{"dx":-8,"dy":-7},{"dx":-4,"dy":-4},{"dx":-9,"dy":-10},{"dx":-2,"dy":-4},{"dx":-1,"dy":-6},{"dx":0,"dy":-6},{"dx":0,"dy":-5}],"trial_type":"plugin-moving-dots-2","trial_index":14,"plugin_version":"0.0.1","time_elapsed":78736},{"task":"fixation","rt":663,"stimulus":"<div style=\"font-size:60px;\">+</div>","response":" ","trial_type":"html-keyboard-response","trial_index":15,"plugin_version":"2.1.0","time_elapsed":79402},{"task":"movingdots","control_change":0,"mouse_data":[{"dx":0,"dy":0},{"dx":4,"dy":2},{"dx":3,"dy":2},{"dx":4,"dy":3},{"dx":4,"dy":2},{"dx":1,"dy":1},{"dx":0,"dy":1},{"dx":0,"dy":1},{"dx":-5,"dy":5},{"dx":-10,"dy":2},{"dx":-22,"dy":4},{"dx":-18,"dy":2},{"dx":-12,"dy":2},{"dx":-14,"dy":4},{"dx":-8,"dy":7},{"dx":-7,"dy":7},{"dx":-6,"dy":9},{"dx":-3,"dy":7},{"dx":-2,"dy":10},{"dx":0,"dy":19},{"dx":0,"dy":8},{"dx":1,"dy":8},{"dx":2,"dy":6},{"dx":2,"dy":5},{"dx":0,"dy":1},{"dx":4,"dy":3},{"dx":5,"dy":2},{"dx":5,"dy":1},{"dx":4,"dy":2},{"dx":5,"dy":1},{"dx":5,"dy":1},{"dx":9,"dy":2},{"dx":4,"dy":1},{"dx":6,"dy":2},{"dx":5,"dy":0},{"dx":6,"dy":1},{"dx":7,"dy":0},{"dx":11,"dy":0},{"dx":7,"dy":0},{"dx":10,"dy":-3},{"dx":17,"dy":-5},{"dx":10,"dy":-5},{"dx":9,"dy":-5},{"dx":16,"dy":-7},{"dx":9,"dy":-5},{"dx":6,"dy":-4},{"dx":9,"dy":-7},{"dx":8,"dy":-10},{"dx":11,"dy":-13},{"dx":11,"dy":-17},{"dx":5,"dy":-11},{"dx":2,"dy":-8},{"dx":-3,"dy":-16},{"dx":-8,"dy":-7},{"dx":-18,"dy":-13},{"dx":-45,"dy":-22},{"dx":-46,"dy":-20},{"dx":-46,"dy":-15},{"dx":-56,"dy":-12},{"dx":-19,"dy":-5},{"dx":-15,"dy":-5},{"dx":-18,"dy":-7},{"dx":-10,"dy":-6},{"dx":-9,"dy":-8},{"dx":-12,"dy":-12},{"dx":-7,"dy":-7},{"dx":-4,"dy":-8},{"dx":-5,"dy":-10},{"dx":-4,"dy":-14},{"dx":-3,"dy":-10},{"dx":-1,"dy":-7},{"dx":0,"dy":-7},{"dx":0,"dy":-9},{"dx":0,"dy":-13},{"dx":0,"dy":-1},{"dx":2,"dy":-6},{"dx":7,"dy":-7},{"dx":7,"dy":-4},{"dx":10,"dy":-5},{"dx":20,"dy":-8},{"dx":17,"dy":-7},{"dx":14,"dy":-4},{"dx":29,"dy":-7},{"dx":13,"dy":-2},{"dx":16,"dy":-2},{"dx":22,"dy":-2},{"dx":11,"dy":0},{"dx":13,"dy":0},{"dx":17,"dy":2},{"dx":8,"dy":2},{"dx":6,"dy":2},{"dx":7,"dy":4},{"dx":8,"dy":3},{"dx":7,"dy":3},{"dx":9,"dy":7},{"dx":3,"dy":2},{"dx":4,"dy":3},{"dx":6,"dy":3},{"dx":5,"dy":2},{"dx":6,"dy":4},{"dx":9,"dy":8},{"dx":5,"dy":8},{"dx":4,"dy":6},{"dx":7,"dy":12},{"dx":5,"dy":9},{"dx":5,"dy":10},{"dx":5,"dy":9},{"dx":1,"dy":6},{"dx":1,"dy":8},{"dx":2,"dy":21},{"dx":1,"dy":11},{"dx":1,"dy":9},{"dx":2,"dy":9},{"dx":1,"dy":8},{"dx":3,"dy":7},{"dx":7,"dy":11},{"dx":5,"dy":4},{"dx":5,"dy":4},{"dx":3,"dy":3},{"dx":3,"dy":6},{"dx":0,"dy":0},{"dx":0,"dy":1},{"dx":-10,"dy":3},{"dx":-16,"dy":0},{"dx":-33,"dy":-2},{"dx":-22,"dy":-4},{"dx":-16,"dy":-2},{"dx":-21,"dy":-4},{"dx":-15,"dy":-1},{"dx":-13,"dy":0},{"dx":-21,"dy":-1},{"dx":-14,"dy":0},{"dx":-11,"dy":0},{"dx":-18,"dy":1},{"dx":-14,"dy":1},{"dx":-13,"dy":1},{"dx":-21,"dy":0},{"dx":-13,"dy":0},{"dx":-11,"dy":0},{"dx":-15,"dy":-2},{"dx":-10,"dy":0},{"dx":-5,"dy":0},{"dx":-14,"dy":1},{"dx":-7,"dy":2},{"dx":-7,"dy":2},{"dx":-6,"dy":2},{"dx":-5,"dy":4},{"dx":-2,"dy":3},{"dx":-5,"dy":9},{"dx":-1,"dy":6},{"dx":-1,"dy":6},{"dx":0,"dy":9},{"dx":0,"dy":9},{"dx":2,"dy":9},{"dx":6,"dy":15},{"dx":5,"dy":8},{"dx":5,"dy":8},{"dx":10,"dy":12},{"dx":5,"dy":6},{"dx":5,"dy":4},{"dx":12,"dy":11},{"dx":5,"dy":4},{"dx":5,"dy":4},{"dx":5,"dy":4},{"dx":5,"dy":4},{"dx":6,"dy":4},{"dx":12,"dy":5},{"dx":5,"dy":2},{"dx":6,"dy":2},{"dx":8,"dy":0},{"dx":8,"dy":0},{"dx":5,"dy":0},{"dx":5,"dy":0},{"dx":5,"dy":0},{"dx":4,"dy":0},{"dx":5,"dy":1},{"dx":6,"dy":0},{"dx":5,"dy":0},{"dx":6,"dy":1},{"dx":6,"dy":0},{"dx":4,"dy":0},{"dx":14,"dy":-3},{"dx":9,"dy":-1},{"dx":5,"dy":-2},{"dx":14,"dy":-5},{"dx":9,"dy":-2},{"dx":8,"dy":-1},{"dx":13,"dy":-3},{"dx":6,"dy":0},{"dx":6,"dy":-1},{"dx":12,"dy":-2},{"dx":9,"dy":-1},{"dx":7,"dy":-2},{"dx":5,"dy":-2},{"dx":6,"dy":-1},{"dx":6,"dy":-1},{"dx":14,"dy":-3},{"dx":4,"dy":-2},{"dx":5,"dy":-2},{"dx":5,"dy":-3},{"dx":3,"dy":-3},{"dx":4,"dy":-4},{"dx":7,"dy":-8},{"dx":3,"dy":-4},{"dx":2,"dy":-5},{"dx":2,"dy":-6},{"dx":1,"dy":-6},{"dx":0,"dy":0},{"dx":0,"dy":-7},{"dx":0,"dy":-5},{"dx":0,"dy":-2},{"dx":0,"dy":-2},{"dx":0,"dy":-1},{"dx":-1,"dy":-2},{"dx":-2,"dy":-5},{"dx":-3,"dy":-3},{"dx":-3,"dy":-5},{"dx":-5,"dy":-5},{"dx":-4,"dy":-4},{"dx":-4,"dy":-5},{"dx":-12,"dy":-12},{"dx":-5,"dy":-4},{"dx":-4,"dy":-4},{"dx":-12,"dy":-9},{"dx":-11,"dy":-7},{"dx":-14,"dy":-6},{"dx":-19,"dy":-10},{"dx":-13,"dy":-6},{"dx":-10,"dy":-4},{"dx":-17,"dy":-4},{"dx":-11,"dy":-4},{"dx":-15,"dy":-5},{"dx":-19,"dy":-8},{"dx":-9,"dy":-5},{"dx":-7,"dy":-5},{"dx":-7,"dy":-6},{"dx":-5,"dy":-7},{"dx":-6,"dy":-7},{"dx":-9,"dy":-18},{"dx":-5,"dy":-10},{"dx":-3,"dy":-12},{"dx":-2,"dy":-8},{"dx":0,"dy":-5},{"dx":0,"dy":-7},{"dx":3,"dy":-12},{"dx":4,"dy":-6},{"dx":5,"dy":-6},{"dx":8,"dy":-7},{"dx":8,"dy":-4},{"dx":14,"dy":-5},{"dx":17,"dy":-6},{"dx":10,"dy":-1},{"dx":11,"dy":-2},{"dx":18,"dy":0},{"dx":12,"dy":1},{"dx":10,"dy":3},{"dx":17,"dy":5},{"dx":11,"dy":5},{"dx":9,"dy":4},{"dx":13,"dy":8},{"dx":10,"dy":4},{"dx":10,"dy":4},{"dx":11,"dy":4},{"dx":6,"dy":2},{"dx":7,"dy":1},{"dx":9,"dy":1},{"dx":7,"dy":0},{"dx":6,"dy":0},{"dx":9,"dy":-2},{"dx":1,"dy":0},{"dx":4,"dy":-3},{"dx":1,"dy":-6},{"dx":-2,"dy":-5},{"dx":-11,"dy":-11},{"dx":-21,"dy":-16},{"dx":-17,"dy":-11},{"dx":-19,"dy":-13},{"dx":-25,"dy":-13},{"dx":-21,"dy":-8},{"dx":-16,"dy":-6},{"dx":-21,"dy":-8},{"dx":-13,"dy":-4},{"dx":-11,"dy":-4},{"dx":-10,"dy":-3},{"dx":-14,"dy":-4},{"dx":-6,"dy":-2},{"dx":-8,"dy":-1},{"dx":-14,"dy":0},{"dx":-4,"dy":0},{"dx":-5,"dy":0},{"dx":-5,"dy":0},{"dx":-5,"dy":2},{"dx":-4,"dy":1},{"dx":-6,"dy":2},{"dx":-5,"dy":4},{"dx":-4,"dy":5},{"dx":-9,"dy":7},{"dx":-10,"dy":6},{"dx":-18,"dy":12},{"dx":-14,"dy":10},{"dx":-12,"dy":9},{"dx":-13,"dy":12},{"dx":-4,"dy":5},{"dx":-5,"dy":8},{"dx":-8,"dy":14},{"dx":-3,"dy":7},{"dx":-3,"dy":7},{"dx":-2,"dy":5},{"dx":-1,"dy":6},{"dx":0,"dy":6},{"dx":1,"dy":6},{"dx":4,"dy":5},{"dx":5,"dy":5},{"dx":20,"dy":8},{"dx":10,"dy":5},{"dx":12,"dy":3},{"dx":11,"dy":5},{"dx":14,"dy":6},{"dx":9,"dy":4},{"dx":6,"dy":5},{"dx":13,"dy":4},{"dx":8,"dy":4},{"dx":8,"dy":3},{"dx":12,"dy":4},{"dx":10,"dy":3},{"dx":17,"dy":4},{"dx":10,"dy":4},{"dx":11,"dy":3},{"dx":15,"dy":7},{"dx":8,"dy":4},{"dx":5,"dy":3},{"dx":4,"dy":3},{"dx":6,"dy":4},{"dx":5,"dy":3},{"dx":3,"dy":2},{"dx":0,"dy":0},{"dx":0,"dy":1},{"dx":-7,"dy":4},{"dx":-16,"dy":2},{"dx":-16,"dy":2},{"dx":-38,"dy":4},{"dx":-23,"dy":1},{"dx":-20,"dy":3},{"dx":-25,"dy":5},{"dx":-13,"dy":5},{"dx":-13,"dy":5},{"dx":-16,"dy":8},{"dx":-8,"dy":7},{"dx":-9,"dy":7},{"dx":-8,"dy":8},{"dx":-5,"dy":5},{"dx":-4,"dy":6},{"dx":-7,"dy":10},{"dx":-3,"dy":5},{"dx":-2,"dy":6},{"dx":-3,"dy":7},{"dx":-2,"dy":5},{"dx":-1,"dy":4},{"dx":-1,"dy":5},{"dx":-1,"dy":10},{"dx":0,"dy":5},{"dx":0,"dy":4},{"dx":1,"dy":5},{"dx":1,"dy":4},{"dx":6,"dy":8},{"dx":5,"dy":6},{"dx":5,"dy":3},{"dx":5,"dy":3},{"dx":12,"dy":6},{"dx":11,"dy":3},{"dx":15,"dy":6},{"dx":10,"dy":4},{"dx":12,"dy":2},{"dx":17,"dy":4},{"dx":7,"dy":0},{"dx":6,"dy":1},{"dx":7,"dy":0},{"dx":6,"dy":0},{"dx":6,"dy":0},{"dx":5,"dy":0},{"dx":9,"dy":1},{"dx":5,"dy":0},{"dx":6,"dy":1},{"dx":8,"dy":1},{"dx":6,"dy":1},{"dx":8,"dy":0},{"dx":5,"dy":0},{"dx":8,"dy":-1},{"dx":7,"dy":0},{"dx":7,"dy":-1},{"dx":5,"dy":0},{"dx":4,"dy":0},{"dx":0,"dy":0},{"dx":6,"dy":1},{"dx":3,"dy":2},{"dx":8,"dy":7},{"dx":3,"dy":3},{"dx":4,"dy":4},{"dx":3,"dy":3},{"dx":4,"dy":3},{"dx":4,"dy":3},{"dx":8,"dy":2},{"dx":5,"dy":0},{"dx":7,"dy":-1},{"dx":10,"dy":-6},{"dx":5,"dy":-4},{"dx":7,"dy":-4},{"dx":7,"dy":-4},{"dx":6,"dy":-4},{"dx":10,"dy":-7},{"dx":9,"dy":-7},{"dx":12,"dy":-9},{"dx":18,"dy":-12},{"dx":10,"dy":-8},{"dx":9,"dy":-7},{"dx":17,"dy":-9},{"dx":9,"dy":-7},{"dx":5,"dy":-2},{"dx":5,"dy":-5},{"dx":8,"dy":-7},{"dx":4,"dy":-3},{"dx":3,"dy":-4},{"dx":4,"dy":-2},{"dx":3,"dy":-4},{"dx":3,"dy":-4},{"dx":4,"dy":-10},{"dx":3,"dy":-10},{"dx":1,"dy":-8},{"dx":0,"dy":-6},{"dx":0,"dy":-6},{"dx":0,"dy":-12},{"dx":-3,"dy":-10},{"dx":-4,"dy":-8},{"dx":-4,"dy":-7},{"dx":-3,"dy":-7},{"dx":-4,"dy":-6},{"dx":-3,"dy":-4},{"dx":-6,"dy":-12},{"dx":-4,"dy":-5},{"dx":-4,"dy":-5},{"dx":-5,"dy":-5},{"dx":-3,"dy":-4},{"dx":-9,"dy":-8},{"dx":-5,"dy":-4},{"dx":-7,"dy":-6},{"dx":-13,"dy":-11},{"dx":-14,"dy":-8},{"dx":-14,"dy":-9},{"dx":-16,"dy":-11},{"dx":-11,"dy":-7},{"dx":-9,"dy":-9},{"dx":-10,"dy":-8}],"trial_type":"plugin-moving-dots-2","trial_index":16,"plugin_version":"0.0.1","time_elapsed":86920},{"task":"fixation","rt":689,"stimulus":"<div style=\"font-size:60px;\">+</div>","response":" ","trial_type":"html-keyboard-response","trial_index":17,"plugin_version":"2.1.0","time_elapsed":87611},{"task":"movingdots","control_change":0,"mouse_data":[{"dx":0,"dy":0},{"dx":7,"dy":8},{"dx":5,"dy":8},{"dx":4,"dy":5},{"dx":3,"dy":4},{"dx":2,"dy":3},{"dx":3,"dy":5},{"dx":3,"dy":4},{"dx":0,"dy":1},{"dx":0,"dy":1},{"dx":-1,"dy":5},{"dx":-1,"dy":0},{"dx":-3,"dy":4},{"dx":-7,"dy":8},{"dx":-3,"dy":3},{"dx":-3,"dy":4},{"dx":-3,"dy":5},{"dx":-4,"dy":5},{"dx":-2,"dy":6},{"dx":-6,"dy":9},{"dx":-3,"dy":5},{"dx":-3,"dy":4},{"dx":-4,"dy":4},{"dx":-4,"dy":3},{"dx":-3,"dy":3},{"dx":-5,"dy":4},{"dx":-5,"dy":3},{"dx":-7,"dy":6},{"dx":-3,"dy":2},{"dx":-3,"dy":3},{"dx":-3,"dy":5},{"dx":-3,"dy":5},{"dx":0,"dy":1},{"dx":-1,"dy":5},{"dx":0,"dy":7},{"dx":1,"dy":6},{"dx":5,"dy":6},{"dx":11,"dy":6},{"dx":10,"dy":4},{"dx":15,"dy":8},{"dx":17,"dy":5},{"dx":13,"dy":5},{"dx":19,"dy":7},{"dx":12,"dy":4},{"dx":11,"dy":3},{"dx":7,"dy":2},{"dx":7,"dy":3},{"dx":5,"dy":1},{"dx":11,"dy":0},{"dx":4,"dy":0},{"dx":5,"dy":-2},{"dx":4,"dy":-3},{"dx":9,"dy":-6},{"dx":9,"dy":-5},{"dx":14,"dy":-9},{"dx":8,"dy":-8},{"dx":4,"dy":-4},{"dx":9,"dy":-9},{"dx":7,"dy":-9},{"dx":6,"dy":-7},{"dx":8,"dy":-12},{"dx":3,"dy":-6},{"dx":2,"dy":-5},{"dx":3,"dy":-5},{"dx":2,"dy":-6},{"dx":0,"dy":-7},{"dx":0,"dy":-6},{"dx":-1,"dy":-6},{"dx":-1,"dy":-6},{"dx":-1,"dy":-6},{"dx":-3,"dy":-4},{"dx":-5,"dy":-5},{"dx":-4,"dy":-4},{"dx":-13,"dy":-9},{"dx":-8,"dy":-4},{"dx":-14,"dy":-7},{"dx":-20,"dy":-13},{"dx":-5,"dy":-3},{"dx":-7,"dy":-3},{"dx":-3,"dy":-3},{"dx":-3,"dy":-4},{"dx":0,"dy":-1},{"dx":-1,"dy":-2},{"dx":-1,"dy":-6},{"dx":0,"dy":0},{"dx":4,"dy":-10},{"dx":2,"dy":-5},{"dx":3,"dy":-5},{"dx":4,"dy":-6},{"dx":5,"dy":-5},{"dx":5,"dy":-5},{"dx":8,"dy":-10},{"dx":4,"dy":-5},{"dx":3,"dy":-5},{"dx":3,"dy":-5},{"dx":2,"dy":-6},{"dx":0,"dy":0},{"dx":0,"dy":-12},{"dx":-2,"dy":-5},{"dx":-2,"dy":-6},{"dx":-2,"dy":-4},{"dx":-4,"dy":-4},{"dx":-4,"dy":-4},{"dx":-11,"dy":-8},{"dx":-4,"dy":-4},{"dx":-5,"dy":-4},{"dx":-3,"dy":-4},{"dx":-5,"dy":-4},{"dx":-6,"dy":-6},{"dx":-12,"dy":-15},{"dx":-9,"dy":-8},{"dx":-10,"dy":-8},{"dx":-12,"dy":-12},{"dx":-7,"dy":-9},{"dx":-7,"dy":-9},{"dx":-12,"dy":-12},{"dx":-12,"dy":-8},{"dx":-10,"dy":-6},{"dx":-15,"dy":-9},{"dx":-10,"dy":-5},{"dx":-8,"dy":-2},{"dx":-8,"dy":-3},{"dx":-13,"dy":-3},{"dx":-11,"dy":-2},{"dx":-11,"dy":-1},{"dx":-7,"dy":0},{"dx":-6,"dy":0},{"dx":-15,"dy":4},{"dx":-8,"dy":1},{"dx":-9,"dy":4},{"dx":-14,"dy":6},{"dx":-10,"dy":6},{"dx":-9,"dy":5},{"dx":-8,"dy":8},{"dx":-7,"dy":9},{"dx":-6,"dy":10},{"dx":-9,"dy":14},{"dx":-5,"dy":10},{"dx":-5,"dy":9},{"dx":-6,"dy":15},{"dx":-3,"dy":6},{"dx":-3,"dy":9},{"dx":-6,"dy":16},{"dx":-3,"dy":10},{"dx":-2,"dy":6},{"dx":-5,"dy":15},{"dx":-2,"dy":8},{"dx":-1,"dy":6},{"dx":0,"dy":10},{"dx":3,"dy":15},{"dx":6,"dy":9},{"dx":19,"dy":18},{"dx":14,"dy":11},{"dx":14,"dy":9},{"dx":19,"dy":10},{"dx":10,"dy":5},{"dx":4,"dy":3},{"dx":4,"dy":4},{"dx":2,"dy":5},{"dx":0,"dy":1},{"dx":-2,"dy":9},{"dx":-6,"dy":7},{"dx":-8,"dy":8},{"dx":-6,"dy":7},{"dx":-5,"dy":8},{"dx":-9,"dy":12},{"dx":-8,"dy":14},{"dx":-5,"dy":10},{"dx":-4,"dy":10},{"dx":-1,"dy":15},{"dx":0,"dy":9},{"dx":3,"dy":9},{"dx":6,"dy":13},{"dx":6,"dy":9},{"dx":10,"dy":10},{"dx":16,"dy":13},{"dx":11,"dy":9},{"dx":11,"dy":7},{"dx":20,"dy":8},{"dx":10,"dy":5},{"dx":11,"dy":4},{"dx":19,"dy":4},{"dx":11,"dy":2},{"dx":10,"dy":1},{"dx":17,"dy":2},{"dx":11,"dy":0},{"dx":7,"dy":1},{"dx":11,"dy":1},{"dx":11,"dy":1},{"dx":8,"dy":0},{"dx":16,"dy":0},{"dx":12,"dy":0},{"dx":14,"dy":-1},{"dx":19,"dy":-2},{"dx":14,"dy":-2},{"dx":14,"dy":-2},{"dx":15,"dy":-2},{"dx":12,"dy":-1},{"dx":11,"dy":-2},{"dx":13,"dy":-3},{"dx":5,"dy":-3},{"dx":5,"dy":-3},{"dx":6,"dy":-3},{"dx":4,"dy":-2},{"dx":4,"dy":-3},{"dx":3,"dy":-3},{"dx":7,"dy":-10},{"dx":4,"dy":-6},{"dx":3,"dy":-6},{"dx":2,"dy":-6},{"dx":3,"dy":-6},{"dx":3,"dy":-10},{"dx":5,"dy":-15},{"dx":0,"dy":-4},{"dx":-2,"dy":-5},{"dx":-5,"dy":-4},{"dx":-13,"dy":-4},{"dx":-15,"dy":0},{"dx":-22,"dy":2},{"dx":-21,"dy":4},{"dx":-15,"dy":2},{"dx":-15,"dy":5},{"dx":-10,"dy":3},{"dx":-5,"dy":1},{"dx":-17,"dy":5},{"dx":-13,"dy":2},{"dx":-14,"dy":2},{"dx":-23,"dy":2},{"dx":-18,"dy":1},{"dx":-15,"dy":0},{"dx":-27,"dy":1},{"dx":-22,"dy":-2},{"dx":-29,"dy":-4},{"dx":-42,"dy":-7},{"dx":-34,"dy":-7},{"dx":-24,"dy":-6},{"dx":-41,"dy":-13},{"dx":-22,"dy":-11},{"dx":-18,"dy":-11},{"dx":-21,"dy":-17},{"dx":-7,"dy":-9},{"dx":-6,"dy":-11},{"dx":-5,"dy":-20},{"dx":-2,"dy":-11},{"dx":0,"dy":-12},{"dx":2,"dy":-20},{"dx":2,"dy":-6},{"dx":4,"dy":-9},{"dx":11,"dy":-11},{"dx":7,"dy":-4},{"dx":9,"dy":-4},{"dx":16,"dy":-4},{"dx":12,"dy":-2},{"dx":18,"dy":1},{"dx":15,"dy":2},{"dx":15,"dy":4},{"dx":12,"dy":2},{"dx":20,"dy":3},{"dx":12,"dy":0},{"dx":7,"dy":0},{"dx":8,"dy":0},{"dx":6,"dy":-1},{"dx":9,"dy":-4},{"dx":4,"dy":-4},{"dx":3,"dy":-3},{"dx":4,"dy":-6},{"dx":3,"dy":-6},{"dx":3,"dy":-4},{"dx":3,"dy":-4},{"dx":7,"dy":-9},{"dx":5,"dy":-5},{"dx":4,"dy":-4},{"dx":6,"dy":-5},{"dx":4,"dy":-3},{"dx":5,"dy":-3},{"dx":12,"dy":-3},{"dx":8,"dy":-2},{"dx":7,"dy":-1},{"dx":8,"dy":-1},{"dx":11,"dy":-1},{"dx":10,"dy":0},{"dx":13,"dy":-3},{"dx":5,"dy":-2},{"dx":5,"dy":-3},{"dx":5,"dy":-3},{"dx":4,"dy":-2},{"dx":4,"dy":-2},{"dx":4,"dy":-4},{"dx":4,"dy":-2},{"dx":1,"dy":0},{"dx":10,"dy":2},{"dx":4,"dy":2},{"dx":4,"dy":2},{"dx":7,"dy":3},{"dx":11,"dy":6},{"dx":7,"dy":4},{"dx":11,"dy":10},{"dx":7,"dy":8},{"dx":7,"dy":7},{"dx":7,"dy":7},{"dx":4,"dy":5},{"dx":5,"dy":6},{"dx":10,"dy":11},{"dx":3,"dy":5},{"dx":2,"dy":5},{"dx":4,"dy":5},{"dx":0,"dy":0},{"dx":2,"dy":6},{"dx":0,"dy":2},{"dx":1,"dy":5},{"dx":0,"dy":7},{"dx":0,"dy":6},{"dx":0,"dy":7},{"dx":-1,"dy":6},{"dx":-5,"dy":12},{"dx":-5,"dy":6},{"dx":-10,"dy":7},{"dx":-20,"dy":13},{"dx":-15,"dy":8},{"dx":-24,"dy":9},{"dx":-28,"dy":13},{"dx":-18,"dy":9},{"dx":-19,"dy":7},{"dx":-21,"dy":10},{"dx":-11,"dy":5},{"dx":-11,"dy":4},{"dx":-11,"dy":4},{"dx":-8,"dy":1},{"dx":-6,"dy":0},{"dx":-6,"dy":0},{"dx":-3,"dy":-1},{"dx":-4,"dy":-4},{"dx":-6,"dy":-11},{"dx":-3,"dy":-5},{"dx":-3,"dy":-8},{"dx":-5,"dy":-16},{"dx":-3,"dy":-14},{"dx":-4,"dy":-11},{"dx":-5,"dy":-8},{"dx":-3,"dy":-7},{"dx":-4,"dy":-5},{"dx":-6,"dy":-12},{"dx":-4,"dy":-6},{"dx":-4,"dy":-5},{"dx":-6,"dy":-5},{"dx":-11,"dy":-7},{"dx":-10,"dy":-5},{"dx":-10,"dy":-4},{"dx":-6,"dy":-2},{"dx":-5,"dy":-2},{"dx":-5,"dy":0},{"dx":-7,"dy":0},{"dx":-6,"dy":0},{"dx":-8,"dy":-1},{"dx":-5,"dy":0},{"dx":-1,"dy":0},{"dx":-4,"dy":0},{"dx":-1,"dy":-1},{"dx":-1,"dy":-2},{"dx":0,"dy":-11},{"dx":2,"dy":-5},{"dx":3,"dy":-6},{"dx":6,"dy":-14},{"dx":6,"dy":-13},{"dx":7,"dy":-11},{"dx":9,"dy":-14},{"dx":4,"dy":-8},{"dx":4,"dy":-6},{"dx":2,"dy":-5},{"dx":4,"dy":-4},{"dx":5,"dy":-3},{"dx":17,"dy":-6},{"dx":12,"dy":-1},{"dx":24,"dy":-1},{"dx":31,"dy":1},{"dx":27,"dy":3},{"dx":23,"dy":4},{"dx":32,"dy":4},{"dx":14,"dy":2},{"dx":10,"dy":1},{"dx":18,"dy":2},{"dx":11,"dy":3},{"dx":6,"dy":1},{"dx":10,"dy":5},{"dx":1,"dy":0},{"dx":4,"dy":3},{"dx":0,"dy":1},{"dx":0,"dy":2},{"dx":0,"dy":6},{"dx":-5,"dy":9},{"dx":-3,"dy":7},{"dx":-5,"dy":6},{"dx":-10,"dy":12},{"dx":-7,"dy":9},{"dx":-6,"dy":10},{"dx":-7,"dy":17},{"dx":-4,"dy":10},{"dx":-4,"dy":10},{"dx":-4,"dy":10},{"dx":-2,"dy":7},{"dx":-2,"dy":10},{"dx":-4,"dy":12},{"dx":-2,"dy":7},{"dx":-1,"dy":7},{"dx":-1,"dy":7},{"dx":-1,"dy":8},{"dx":0,"dy":6},{"dx":0,"dy":5},{"dx":2,"dy":10},{"dx":3,"dy":4},{"dx":3,"dy":6},{"dx":0,"dy":1},{"dx":4,"dy":3},{"dx":9,"dy":5},{"dx":5,"dy":2},{"dx":6,"dy":2},{"dx":6,"dy":2},{"dx":6,"dy":2},{"dx":0,"dy":0},{"dx":3,"dy":3},{"dx":4,"dy":4},{"dx":3,"dy":4},{"dx":2,"dy":6},{"dx":0,"dy":6},{"dx":0,"dy":1},{"dx":-2,"dy":10},{"dx":-3,"dy":5},{"dx":-4,"dy":3},{"dx":-15,"dy":7},{"dx":-15,"dy":4},{"dx":-20,"dy":3},{"dx":-24,"dy":2},{"dx":-16,"dy":1},{"dx":-14,"dy":0},{"dx":-19,"dy":0},{"dx":-16,"dy":-2},{"dx":-15,"dy":-4},{"dx":-23,"dy":-8},{"dx":-15,"dy":-7},{"dx":-11,"dy":-9},{"dx":-13,"dy":-11},{"dx":-8,"dy":-9},{"dx":-5,"dy":-8},{"dx":-3,"dy":-13},{"dx":-3,"dy":-17},{"dx":-2,"dy":-13},{"dx":0,"dy":-12},{"dx":0,"dy":-20},{"dx":0,"dy":-10},{"dx":2,"dy":-9},{"dx":4,"dy":-16}],"trial_type":"plugin-moving-dots-2","trial_index":18,"plugin_version":"0.0.1","time_elapsed":95119},{"task":"fixation","rt":938,"stimulus":"<div style=\"font-size:60px;\">+</div>","response":" ","trial_type":"html-keyboard-response","trial_index":19,"plugin_version":"2.1.0","time_elapsed":96058},{"task":"movingdots","control_change":0,"mouse_data":[{"dx":0,"dy":0},{"dx":0,"dy":0},{"dx":0,"dy":0},{"dx":0,"dy":0},{"dx":0,"dy":0},{"dx":0,"dy":0},{"dx":0,"dy":0},{"dx":0,"dy":0},{"dx":0,"dy":0},{"dx":0,"dy":0},{"dx":0,"dy":0},{"dx":0,"dy":0},{"dx":0,"dy":0},{"dx":0,"dy":0},{"dx":0,"dy":0},{"dx":0,"dy":0},{"dx":0,"dy":0},{"dx":0,"dy":0},{"dx":4,"dy":2},{"dx":9,"dy":7},{"dx":13,"dy":9},{"dx":10,"dy":6},{"dx":14,"dy":4},{"dx":19,"dy":5},{"dx":11,"dy":3},{"dx":13,"dy":2},{"dx":12,"dy":3},{"dx":1,"dy":0},{"dx":4,"dy":1},{"dx":1,"dy":0},{"dx":1,"dy":0},{"dx":1,"dy":0},{"dx":2,"dy":-1},{"dx":2,"dy":-4},{"dx":0,"dy":-7},{"dx":-6,"dy":-11},{"dx":-12,"dy":-11},{"dx":-10,"dy":-9},{"dx":-19,"dy":-12},{"dx":-12,"dy":-6},{"dx":-13,"dy":-6},{"dx":-15,"dy":-9},{"dx":-8,"dy":-6},{"dx":-5,"dy":-2},{"dx":-9,"dy":-8},{"dx":-1,"dy":0},{"dx":-3,"dy":-4},{"dx":-4,"dy":-5},{"dx":-2,"dy":-4},{"dx":0,"dy":-1},{"dx":-3,"dy":-4},{"dx":0,"dy":-1},{"dx":-5,"dy":-2},{"dx":-5,"dy":-1},{"dx":-6,"dy":0},{"dx":-4,"dy":0},{"dx":-9,"dy":7},{"dx":-5,"dy":5},{"dx":-7,"dy":9},{"dx":-17,"dy":14},{"dx":-10,"dy":11},{"dx":-9,"dy":9},{"dx":-8,"dy":14},{"dx":-6,"dy":11},{"dx":-4,"dy":8},{"dx":-5,"dy":9},{"dx":-4,"dy":9},{"dx":-2,"dy":5},{"dx":-1,"dy":6},{"dx":0,"dy":10},{"dx":0,"dy":1},{"dx":-1,"dy":5},{"dx":-3,"dy":7},{"dx":-1,"dy":1},{"dx":-1,"dy":4},{"dx":-2,"dy":1},{"dx":-2,"dy":2},{"dx":-6,"dy":3},{"dx":-9,"dy":4},{"dx":-4,"dy":1},{"dx":-5,"dy":2},{"dx":-5,"dy":1},{"dx":-5,"dy":2},{"dx":-11,"dy":5},{"dx":-15,"dy":4},{"dx":-7,"dy":2},{"dx":-6,"dy":2},{"dx":-4,"dy":1},{"dx":-4,"dy":3},{"dx":-1,"dy":0},{"dx":-3,"dy":6},{"dx":1,"dy":7},{"dx":3,"dy":5},{"dx":15,"dy":15},{"dx":17,"dy":11},{"dx":21,"dy":13},{"dx":36,"dy":17},{"dx":15,"dy":7},{"dx":35,"dy":7},{"dx":19,"dy":2},{"dx":25,"dy":0},{"dx":25,"dy":-1},{"dx":12,"dy":-2},{"dx":11,"dy":0},{"dx":8,"dy":-2},{"dx":7,"dy":-1},{"dx":8,"dy":-2},{"dx":6,"dy":-2},{"dx":14,"dy":-9},{"dx":6,"dy":-6},{"dx":7,"dy":-8},{"dx":5,"dy":-11},{"dx":3,"dy":-7},{"dx":2,"dy":-6},{"dx":4,"dy":-13},{"dx":2,"dy":-10},{"dx":2,"dy":-12},{"dx":4,"dy":-10},{"dx":3,"dy":-8},{"dx":3,"dy":-9},{"dx":5,"dy":-18},{"dx":3,"dy":-7},{"dx":3,"dy":-7},{"dx":5,"dy":-6},{"dx":8,"dy":-11},{"dx":7,"dy":-10},{"dx":6,"dy":-7},{"dx":4,"dy":-5},{"dx":2,"dy":-4},{"dx":2,"dy":-5},{"dx":2,"dy":-4},{"dx":1,"dy":-5},{"dx":1,"dy":-10},{"dx":-1,"dy":-5},{"dx":-3,"dy":-3},{"dx":-5,"dy":-5},{"dx":-7,"dy":-4},{"dx":-8,"dy":-6},{"dx":-13,"dy":-8},{"dx":-5,"dy":-3},{"dx":-7,"dy":-6},{"dx":-5,"dy":-4},{"dx":-4,"dy":-4},{"dx":-2,"dy":-3},{"dx":-7,"dy":-7},{"dx":-4,"dy":-4},{"dx":-5,"dy":-5},{"dx":-5,"dy":-6},{"dx":-6,"dy":-5},{"dx":-5,"dy":-5},{"dx":-10,"dy":-7},{"dx":-10,"dy":-5},{"dx":-12,"dy":-3},{"dx":-14,"dy":-5},{"dx":-9,"dy":-3},{"dx":-10,"dy":-2},{"dx":-17,"dy":-3},{"dx":-5,"dy":-1},{"dx":-8,"dy":0},{"dx":-14,"dy":0},{"dx":-10,"dy":2},{"dx":-11,"dy":4},{"dx":-13,"dy":8},{"dx":-9,"dy":7},{"dx":-5,"dy":6},{"dx":-5,"dy":7},{"dx":-3,"dy":5},{"dx":-2,"dy":6},{"dx":-4,"dy":14},{"dx":-1,"dy":8},{"dx":-1,"dy":8},{"dx":0,"dy":8},{"dx":0,"dy":5},{"dx":0,"dy":6},{"dx":1,"dy":11},{"dx":1,"dy":5},{"dx":1,"dy":5},{"dx":2,"dy":6},{"dx":1,"dy":6},{"dx":2,"dy":5},{"dx":3,"dy":15},{"dx":1,"dy":6},{"dx":2,"dy":6},{"dx":2,"dy":6},{"dx":2,"dy":5},{"dx":2,"dy":7},{"dx":5,"dy":9},{"dx":3,"dy":5},{"dx":3,"dy":4},{"dx":3,"dy":4},{"dx":4,"dy":3},{"dx":3,"dy":3},{"dx":9,"dy":7},{"dx":3,"dy":3},{"dx":3,"dy":3},{"dx":4,"dy":3},{"dx":3,"dy":3},{"dx":4,"dy":3},{"dx":10,"dy":4},{"dx":8,"dy":2},{"dx":10,"dy":3},{"dx":16,"dy":3},{"dx":12,"dy":2},{"dx":9,"dy":2},{"dx":15,"dy":4},{"dx":4,"dy":1},{"dx":9,"dy":2},{"dx":10,"dy":4},{"dx":1,"dy":0},{"dx":5,"dy":0},{"dx":9,"dy":1},{"dx":4,"dy":0},{"dx":6,"dy":0},{"dx":5,"dy":-2},{"dx":6,"dy":-3},{"dx":9,"dy":-7},{"dx":13,"dy":-7},{"dx":5,"dy":-3},{"dx":6,"dy":-6},{"dx":8,"dy":-9},{"dx":3,"dy":-5},{"dx":1,"dy":-7},{"dx":0,"dy":-16},{"dx":-6,"dy":-10},{"dx":-10,"dy":-9},{"dx":-15,"dy":-10},{"dx":-10,"dy":-5},{"dx":-8,"dy":-4},{"dx":-8,"dy":-4},{"dx":-6,"dy":-3},{"dx":-4,"dy":-3},{"dx":-3,"dy":-3},{"dx":-3,"dy":-3},{"dx":-2,"dy":-5},{"dx":0,"dy":-8},{"dx":2,"dy":-6},{"dx":2,"dy":-10},{"dx":8,"dy":-19},{"dx":7,"dy":-11},{"dx":3,"dy":-5},{"dx":11,"dy":-10},{"dx":5,"dy":-4},{"dx":9,"dy":-5},{"dx":14,"dy":-5},{"dx":6,"dy":-2},{"dx":7,"dy":0},{"dx":6,"dy":2},{"dx":7,"dy":4},{"dx":6,"dy":4},{"dx":5,"dy":5},{"dx":6,"dy":9},{"dx":2,"dy":8},{"dx":1,"dy":10},{"dx":1,"dy":8},{"dx":0,"dy":9},{"dx":-2,"dy":20},{"dx":-3,"dy":10},{"dx":-5,"dy":11},{"dx":-12,"dy":17},{"dx":-9,"dy":11},{"dx":-10,"dy":10},{"dx":-17,"dy":15},{"dx":-11,"dy":9},{"dx":-12,"dy":9},{"dx":-15,"dy":11},{"dx":-20,"dy":17},{"dx":-11,"dy":9},{"dx":-12,"dy":9},{"dx":-19,"dy":13},{"dx":-12,"dy":9},{"dx":-13,"dy":8},{"dx":-17,"dy":9},{"dx":-8,"dy":5},{"dx":-8,"dy":3},{"dx":-16,"dy":4},{"dx":-14,"dy":1},{"dx":-11,"dy":0},{"dx":-18,"dy":-1},{"dx":-11,"dy":0},{"dx":-10,"dy":-1},{"dx":-15,"dy":-3},{"dx":-10,"dy":-3},{"dx":-11,"dy":-5},{"dx":-13,"dy":-10},{"dx":-7,"dy":-8},{"dx":-7,"dy":-8},{"dx":-8,"dy":-13},{"dx":-5,"dy":-11},{"dx":-5,"dy":-10},{"dx":-4,"dy":-10},{"dx":-3,"dy":-7},{"dx":-2,"dy":-8},{"dx":-3,"dy":-24},{"dx":-1,"dy":-5},{"dx":-2,"dy":-16},{"dx":-1,"dy":-20},{"dx":-1,"dy":-11},{"dx":0,"dy":-11},{"dx":2,"dy":-16},{"dx":2,"dy":-11},{"dx":1,"dy":-7},{"dx":5,"dy":-14},{"dx":2,"dy":-5},{"dx":3,"dy":-6},{"dx":7,"dy":-11},{"dx":5,"dy":-9},{"dx":4,"dy":-4},{"dx":4,"dy":-7},{"dx":4,"dy":-5},{"dx":3,"dy":-4},{"dx":13,"dy":-10},{"dx":6,"dy":-5},{"dx":6,"dy":-3},{"dx":7,"dy":-5},{"dx":6,"dy":-3},{"dx":11,"dy":-3},{"dx":12,"dy":-1},{"dx":7,"dy":-1},{"dx":6,"dy":-1},{"dx":13,"dy":0},{"dx":8,"dy":0},{"dx":8,"dy":0},{"dx":6,"dy":-1},{"dx":6,"dy":0},{"dx":12,"dy":-1},{"dx":14,"dy":-1},{"dx":9,"dy":-1},{"dx":8,"dy":-1},{"dx":10,"dy":-1},{"dx":8,"dy":-1},{"dx":6,"dy":-1},{"dx":18,"dy":0},{"dx":5,"dy":0},{"dx":6,"dy":0},{"dx":6,"dy":0},{"dx":5,"dy":0},{"dx":6,"dy":-1},{"dx":5,"dy":-1},{"dx":1,"dy":-1},{"dx":4,"dy":-1},{"dx":5,"dy":-3},{"dx":3,"dy":-4},{"dx":3,"dy":-4},{"dx":2,"dy":-6},{"dx":2,"dy":-6},{"dx":0,"dy":-2},{"dx":0,"dy":-1},{"dx":0,"dy":-2},{"dx":0,"dy":-2},{"dx":0,"dy":-3},{"dx":0,"dy":-5},{"dx":0,"dy":0},{"dx":0,"dy":-6},{"dx":1,"dy":-5},{"dx":0,"dy":-1},{"dx":1,"dy":-11},{"dx":0,"dy":-1},{"dx":-1,"dy":-5},{"dx":-9,"dy":-6},{"dx":-7,"dy":-2},{"dx":-6,"dy":-1},{"dx":-16,"dy":-2},{"dx":-11,"dy":0},{"dx":-11,"dy":1},{"dx":-19,"dy":3},{"dx":-10,"dy":2},{"dx":-10,"dy":2},{"dx":-13,"dy":6},{"dx":-10,"dy":4},{"dx":-9,"dy":4},{"dx":-8,"dy":5},{"dx":-6,"dy":4},{"dx":-12,"dy":6},{"dx":-19,"dy":8},{"dx":-10,"dy":6},{"dx":-9,"dy":5},{"dx":-15,"dy":9},{"dx":-13,"dy":8},{"dx":-12,"dy":8},{"dx":-18,"dy":13},{"dx":-12,"dy":9},{"dx":-11,"dy":10},{"dx":-13,"dy":13},{"dx":-9,"dy":9},{"dx":-8,"dy":7},{"dx":-10,"dy":12},{"dx":-8,"dy":7},{"dx":-4,"dy":5},{"dx":-8,"dy":11},{"dx":-3,"dy":5},{"dx":-2,"dy":5},{"dx":-3,"dy":4},{"dx":-1,"dy":6},{"dx":-1,"dy":6},{"dx":-1,"dy":10},{"dx":0,"dy":7},{"dx":0,"dy":6},{"dx":1,"dy":6},{"dx":2,"dy":7},{"dx":2,"dy":7},{"dx":4,"dy":12},{"dx":2,"dy":6},{"dx":3,"dy":7},{"dx":4,"dy":7},{"dx":7,"dy":13},{"dx":6,"dy":9},{"dx":10,"dy":13},{"dx":6,"dy":9},{"dx":6,"dy":7},{"dx":11,"dy":13},{"dx":8,"dy":7},{"dx":9,"dy":8},{"dx":8,"dy":7},{"dx":6,"dy":5},{"dx":9,"dy":7},{"dx":15,"dy":8},{"dx":11,"dy":5},{"dx":6,"dy":2},{"dx":15,"dy":5},{"dx":11,"dy":1},{"dx":10,"dy":2},{"dx":15,"dy":2},{"dx":13,"dy":1},{"dx":12,"dy":0},{"dx":20,"dy":-2},{"dx":14,"dy":-2},{"dx":13,"dy":-3},{"dx":16,"dy":-6},{"dx":13,"dy":-4},{"dx":11,"dy":-4},{"dx":14,"dy":-6},{"dx":11,"dy":-4},{"dx":12,"dy":-4},{"dx":12,"dy":-5},{"dx":5,"dy":-4},{"dx":6,"dy":-3},{"dx":13,"dy":-6},{"dx":5,"dy":-3},{"dx":6,"dy":-3},{"dx":10,"dy":-8},{"dx":7,"dy":-3},{"dx":6,"dy":-4},{"dx":12,"dy":-7},{"dx":6,"dy":-6},{"dx":6,"dy":-8},{"dx":9,"dy":-14},{"dx":6,"dy":-9},{"dx":5,"dy":-8},{"dx":2,"dy":-5},{"dx":2,"dy":-6},{"dx":1,"dy":-7},{"dx":2,"dy":-10},{"dx":-1,"dy":-6}],"trial_type":"plugin-moving-dots-2","trial_index":20,"plugin_version":"0.0.1","time_elapsed":103570},{"task":"fixation","rt":839,"stimulus":"<div style=\"font-size:60px;\">+</div>","response":" ","trial_type":"html-keyboard-response","trial_index":21,"plugin_version":"2.1.0","time_elapsed":104410},{"task":"movingdots","control_change":0,"mouse_data":[{"dx":0,"dy":0},{"dx":0,"dy":0},{"dx":0,"dy":0},{"dx":0,"dy":0},{"dx":0,"dy":0},{"dx":0,"dy":0},{"dx":0,"dy":0},{"dx":0,"dy":0},{"dx":0,"dy":0},{"dx":0,"dy":0},{"dx":0,"dy":0},{"dx":0,"dy":0},{"dx":0,"dy":0},{"dx":0,"dy":0},{"dx":-2,"dy":0},{"dx":-1,"dy":-1},{"dx":-1,"dy":-1},{"dx":-2,"dy":-2},{"dx":-1,"dy":-1},{"dx":0,"dy":-2},{"dx":-1,"dy":-2},{"dx":-1,"dy":-2},{"dx":0,"dy":-1},{"dx":-1,"dy":-5},{"dx":-2,"dy":-6},{"dx":-1,"dy":0},{"dx":-3,"dy":-5},{"dx":-2,"dy":-4},{"dx":-3,"dy":-5},{"dx":-4,"dy":-4},{"dx":-4,"dy":-3},{"dx":-4,"dy":-2},{"dx":-6,"dy":-3},{"dx":-5,"dy":-2},{"dx":-1,"dy":0},{"dx":-4,"dy":-1},{"dx":-1,"dy":-1},{"dx":-1,"dy":0},{"dx":-2,"dy":0},{"dx":-1,"dy":-1},{"dx":-1,"dy":0},{"dx":-9,"dy":-1},{"dx":-4,"dy":0},{"dx":-5,"dy":0},{"dx":-5,"dy":0},{"dx":-5,"dy":3},{"dx":-4,"dy":2},{"dx":-4,"dy":4},{"dx":-9,"dy":7},{"dx":-8,"dy":5},{"dx":-8,"dy":7},{"dx":-6,"dy":7},{"dx":-4,"dy":5},{"dx":-8,"dy":11},{"dx":-3,"dy":5},{"dx":-4,"dy":7},{"dx":-3,"dy":5},{"dx":-2,"dy":6},{"dx":-1,"dy":5},{"dx":-1,"dy":9},{"dx":0,"dy":1},{"dx":0,"dy":6},{"dx":-1,"dy":6},{"dx":2,"dy":7},{"dx":2,"dy":5},{"dx":3,"dy":5},{"dx":2,"dy":4},{"dx":3,"dy":4},{"dx":5,"dy":10},{"dx":3,"dy":5},{"dx":3,"dy":5},{"dx":6,"dy":10},{"dx":6,"dy":9},{"dx":3,"dy":5},{"dx":10,"dy":13},{"dx":4,"dy":7},{"dx":4,"dy":5},{"dx":4,"dy":6},{"dx":4,"dy":7},{"dx":5,"dy":7},{"dx":8,"dy":9},{"dx":3,"dy":4},{"dx":3,"dy":3},{"dx":4,"dy":4},{"dx":5,"dy":3},{"dx":4,"dy":2},{"dx":11,"dy":0},{"dx":7,"dy":0},{"dx":6,"dy":0},{"dx":6,"dy":0},{"dx":13,"dy":0},{"dx":9,"dy":0},{"dx":4,"dy":-1},{"dx":13,"dy":-2},{"dx":10,"dy":-2},{"dx":10,"dy":-2},{"dx":14,"dy":-6},{"dx":8,"dy":-5},{"dx":9,"dy":-7},{"dx":9,"dy":-7},{"dx":6,"dy":-6},{"dx":5,"dy":-5},{"dx":4,"dy":-11},{"dx":3,"dy":-12},{"dx":1,"dy":-11},{"dx":0,"dy":-11},{"dx":1,"dy":-7},{"dx":0,"dy":-6},{"dx":1,"dy":-5},{"dx":1,"dy":-7},{"dx":2,"dy":-6},{"dx":5,"dy":-7},{"dx":4,"dy":-4},{"dx":8,"dy":-6},{"dx":14,"dy":-12},{"dx":9,"dy":-11},{"dx":8,"dy":-9},{"dx":9,"dy":-9},{"dx":5,"dy":-6},{"dx":5,"dy":-7},{"dx":10,"dy":-17},{"dx":4,"dy":-9},{"dx":3,"dy":-10},{"dx":1,"dy":-8},{"dx":0,"dy":-6},{"dx":0,"dy":-6},{"dx":-4,"dy":-14},{"dx":-2,"dy":-5},{"dx":-2,"dy":-4},{"dx":-3,"dy":-5},{"dx":-3,"dy":-5},{"dx":-3,"dy":-4},{"dx":-6,"dy":-14},{"dx":-3,"dy":-5},{"dx":-3,"dy":-4},{"dx":-3,"dy":-5},{"dx":-3,"dy":-4},{"dx":-4,"dy":-4},{"dx":-9,"dy":-7},{"dx":-9,"dy":-9},{"dx":-10,"dy":-7},{"dx":-15,"dy":-9},{"dx":-11,"dy":-4},{"dx":-10,"dy":-5},{"dx":-15,"dy":-5},{"dx":-12,"dy":-3},{"dx":-10,"dy":-3},{"dx":-17,"dy":-2},{"dx":-13,"dy":-1},{"dx":-14,"dy":0},{"dx":-18,"dy":1},{"dx":-13,"dy":1},{"dx":-10,"dy":1},{"dx":-15,"dy":2},{"dx":-9,"dy":3},{"dx":-11,"dy":1},{"dx":-12,"dy":5},{"dx":-7,"dy":3},{"dx":-6,"dy":3},{"dx":-6,"dy":4},{"dx":-6,"dy":4},{"dx":-4,"dy":3},{"dx":-9,"dy":7},{"dx":-6,"dy":4},{"dx":-3,"dy":3},{"dx":-3,"dy":3},{"dx":-4,"dy":4},{"dx":-4,"dy":4},{"dx":-3,"dy":4},{"dx":-1,"dy":1},{"dx":-3,"dy":4},{"dx":-3,"dy":4},{"dx":-3,"dy":4},{"dx":-3,"dy":6},{"dx":-5,"dy":6},{"dx":-4,"dy":5},{"dx":-1,"dy":0},{"dx":-4,"dy":5},{"dx":-3,"dy":3},{"dx":-6,"dy":3},{"dx":-9,"dy":3},{"dx":-5,"dy":1},{"dx":-5,"dy":0},{"dx":-4,"dy":0},{"dx":-4,"dy":0},{"dx":-6,"dy":0},{"dx":-6,"dy":2},{"dx":-5,"dy":2},{"dx":-4,"dy":5},{"dx":-4,"dy":4},{"dx":-3,"dy":5},{"dx":-4,"dy":7},{"dx":-4,"dy":13},{"dx":-2,"dy":10},{"dx":0,"dy":6},{"dx":0,"dy":8},{"dx":1,"dy":8},{"dx":1,"dy":6},{"dx":6,"dy":15},{"dx":3,"dy":6},{"dx":3,"dy":6},{"dx":4,"dy":5},{"dx":3,"dy":6},{"dx":4,"dy":3},{"dx":8,"dy":9},{"dx":5,"dy":5},{"dx":6,"dy":5},{"dx":8,"dy":9},{"dx":6,"dy":6},{"dx":4,"dy":6},{"dx":4,"dy":4},{"dx":4,"dy":5},{"dx":4,"dy":4},{"dx":14,"dy":11},{"dx":8,"dy":5},{"dx":5,"dy":4},{"dx":5,"dy":4},{"dx":4,"dy":3},{"dx":4,"dy":3},{"dx":10,"dy":7},{"dx":5,"dy":4},{"dx":5,"dy":3},{"dx":6,"dy":5},{"dx":4,"dy":3},{"dx":5,"dy":3},{"dx":11,"dy":6},{"dx":7,"dy":4},{"dx":8,"dy":4},{"dx":18,"dy":5},{"dx":12,"dy":3},{"dx":9,"dy":2},{"dx":10,"dy":2},{"dx":10,"dy":1},{"dx":7,"dy":1},{"dx":5,"dy":0},{"dx":6,"dy":0},{"dx":1,"dy":0},{"dx":1,"dy":0},{"dx":1,"dy":0},{"dx":4,"dy":-4},{"dx":3,"dy":-6},{"dx":4,"dy":-6},{"dx":6,"dy":-9},{"dx":7,"dy":-12},{"dx":6,"dy":-7},{"dx":9,"dy":-8},{"dx":10,"dy":-6},{"dx":18,"dy":-7},{"dx":10,"dy":-5},{"dx":9,"dy":-3},{"dx":14,"dy":-5},{"dx":7,"dy":-3},{"dx":6,"dy":-2},{"dx":3,"dy":-2},{"dx":5,"dy":-3},{"dx":1,"dy":0},{"dx":8,"dy":-5},{"dx":4,"dy":-3},{"dx":4,"dy":-4},{"dx":5,"dy":-5},{"dx":3,"dy":-5},{"dx":5,"dy":-12},{"dx":4,"dy":-17},{"dx":0,"dy":-7},{"dx":0,"dy":-9},{"dx":0,"dy":-17},{"dx":-1,"dy":-10},{"dx":-3,"dy":-8},{"dx":-11,"dy":-15},{"dx":-7,"dy":-10},{"dx":-6,"dy":-12},{"dx":-9,"dy":-15},{"dx":-3,"dy":-6},{"dx":-4,"dy":-8},{"dx":-5,"dy":-18},{"dx":-2,"dy":-7},{"dx":-3,"dy":-7},{"dx":-3,"dy":-7},{"dx":-2,"dy":-5},{"dx":-2,"dy":-6},{"dx":-4,"dy":-14},{"dx":-2,"dy":-5},{"dx":-2,"dy":-4},{"dx":-1,"dy":-6},{"dx":0,"dy":-1},{"dx":-2,"dy":-5},{"dx":0,"dy":-6},{"dx":0,"dy":-1},{"dx":0,"dy":-5},{"dx":2,"dy":-7},{"dx":4,"dy":-4},{"dx":6,"dy":-2},{"dx":10,"dy":-5},{"dx":7,"dy":-2},{"dx":9,"dy":-2},{"dx":7,"dy":-2},{"dx":5,"dy":-1},{"dx":0,"dy":0},{"dx":1,"dy":-1},{"dx":0,"dy":0},{"dx":1,"dy":0},{"dx":0,"dy":-2},{"dx":-6,"dy":-3},{"dx":-11,"dy":-5},{"dx":-19,"dy":-5},{"dx":-12,"dy":-4},{"dx":-11,"dy":-4},{"dx":-14,"dy":-6},{"dx":-6,"dy":-1},{"dx":-7,"dy":-1},{"dx":-14,"dy":-4},{"dx":-6,"dy":-2},{"dx":-10,"dy":-2},{"dx":-16,"dy":0},{"dx":-10,"dy":0},{"dx":-12,"dy":2},{"dx":-14,"dy":4},{"dx":-9,"dy":3},{"dx":-9,"dy":5},{"dx":-17,"dy":10},{"dx":-10,"dy":8},{"dx":-10,"dy":6},{"dx":-15,"dy":13},{"dx":-11,"dy":7},{"dx":-9,"dy":7},{"dx":-12,"dy":11},{"dx":-8,"dy":6},{"dx":-9,"dy":5},{"dx":-17,"dy":9},{"dx":-8,"dy":7},{"dx":-4,"dy":4},{"dx":-11,"dy":10},{"dx":-7,"dy":6},{"dx":-5,"dy":4},{"dx":-7,"dy":5},{"dx":-5,"dy":4},{"dx":-5,"dy":4},{"dx":-7,"dy":6},{"dx":-4,"dy":3},{"dx":-4,"dy":2},{"dx":-5,"dy":3},{"dx":-4,"dy":3},{"dx":-3,"dy":3},{"dx":-3,"dy":3},{"dx":-5,"dy":10},{"dx":-2,"dy":4},{"dx":-2,"dy":6},{"dx":-1,"dy":5},{"dx":-1,"dy":5},{"dx":0,"dy":8},{"dx":2,"dy":4},{"dx":2,"dy":5},{"dx":3,"dy":5},{"dx":3,"dy":4},{"dx":3,"dy":4},{"dx":3,"dy":6},{"dx":2,"dy":5},{"dx":2,"dy":6},{"dx":2,"dy":6},{"dx":1,"dy":6},{"dx":2,"dy":5},{"dx":2,"dy":5},{"dx":2,"dy":9},{"dx":1,"dy":5},{"dx":2,"dy":6},{"dx":1,"dy":7},{"dx":1,"dy":6},{"dx":1,"dy":5},{"dx":1,"dy":9},{"dx":1,"dy":6},{"dx":0,"dy":7},{"dx":0,"dy":6},{"dx":1,"dy":4},{"dx":0,"dy":6},{"dx":4,"dy":12},{"dx":1,"dy":4},{"dx":3,"dy":5},{"dx":4,"dy":5},{"dx":11,"dy":8},{"dx":14,"dy":7},{"dx":11,"dy":5},{"dx":14,"dy":4},{"dx":19,"dy":7},{"dx":11,"dy":4},{"dx":11,"dy":4},{"dx":14,"dy":5},{"dx":5,"dy":2},{"dx":8,"dy":3},{"dx":13,"dy":4},{"dx":7,"dy":1},{"dx":6,"dy":1},{"dx":5,"dy":0},{"dx":5,"dy":0},{"dx":6,"dy":0},{"dx":4,"dy":-1},{"dx":9,"dy":-1},{"dx":4,"dy":-1},{"dx":5,"dy":-2},{"dx":5,"dy":-1},{"dx":3,"dy":-1},{"dx":5,"dy":0},{"dx":10,"dy":-1},{"dx":4,"dy":0},{"dx":4,"dy":-1},{"dx":5,"dy":0},{"dx":5,"dy":0},{"dx":6,"dy":0},{"dx":16,"dy":-1},{"dx":7,"dy":-2},{"dx":6,"dy":-4},{"dx":8,"dy":-6},{"dx":6,"dy":-6},{"dx":6,"dy":-8},{"dx":7,"dy":-15},{"dx":2,"dy":-7},{"dx":0,"dy":-6},{"dx":-2,"dy":-14},{"dx":-4,"dy":-11},{"dx":-3,"dy":-5},{"dx":-6,"dy":-12},{"dx":-1,"dy":0},{"dx":-2,"dy":-5},{"dx":-1,"dy":-10},{"dx":-1,"dy":-7},{"dx":0,"dy":-7},{"dx":1,"dy":-8},{"dx":5,"dy":-13},{"dx":4,"dy":-12},{"dx":8,"dy":-19},{"dx":3,"dy":-6},{"dx":5,"dy":-8},{"dx":6,"dy":-14},{"dx":6,"dy":-12},{"dx":5,"dy":-8},{"dx":7,"dy":-9},{"dx":5,"dy":-7},{"dx":6,"dy":-7},{"dx":10,"dy":-17},{"dx":3,"dy":-7},{"dx":2,"dy":-6},{"dx":1,"dy":-6},{"dx":0,"dy":-6},{"dx":0,"dy":-5},{"dx":-11,"dy":-13},{"dx":-7,"dy":-7},{"dx":-6,"dy":-5},{"dx":-5,"dy":-4},{"dx":-3,"dy":-3},{"dx":-5,"dy":-5},{"dx":-3,"dy":-4},{"dx":-2,"dy":-6},{"dx":0,"dy":-1},{"dx":0,"dy":-12}],"trial_type":"plugin-moving-dots-2","trial_index":22,"plugin_version":"0.0.1","time_elapsed":111920},{"task":"fixation","rt":826,"stimulus":"<div style=\"font-size:60px;\">+</div>","response":" ","trial_type":"html-keyboard-response","trial_index":23,"plugin_version":"2.1.0","time_elapsed":112746},{"task":"movingdots","control_change":0,"mouse_data":[{"dx":0,"dy":0},{"dx":3,"dy":2},{"dx":0,"dy":0},{"dx":1,"dy":0},{"dx":1,"dy":0},{"dx":0,"dy":0},{"dx":1,"dy":-2},{"dx":0,"dy":-2},{"dx":-1,"dy":-3},{"dx":-5,"dy":-1},{"dx":-10,"dy":0},{"dx":-5,"dy":1},{"dx":-4,"dy":2},{"dx":-6,"dy":4},{"dx":-6,"dy":3},{"dx":-6,"dy":5},{"dx":-9,"dy":8},{"dx":-3,"dy":4},{"dx":0,"dy":1},{"dx":-3,"dy":10},{"dx":-1,"dy":6},{"dx":-1,"dy":5},{"dx":0,"dy":6},{"dx":0,"dy":7},{"dx":0,"dy":0},{"dx":0,"dy":6},{"dx":0,"dy":5},{"dx":0,"dy":5},{"dx":0,"dy":6},{"dx":0,"dy":0},{"dx":0,"dy":6},{"dx":2,"dy":11},{"dx":3,"dy":5},{"dx":3,"dy":6},{"dx":4,"dy":6},{"dx":4,"dy":5},{"dx":5,"dy":5},{"dx":10,"dy":8},{"dx":6,"dy":3},{"dx":7,"dy":3},{"dx":8,"dy":3},{"dx":5,"dy":2},{"dx":6,"dy":1},{"dx":14,"dy":2},{"dx":6,"dy":0},{"dx":5,"dy":0},{"dx":6,"dy":-1},{"dx":4,"dy":0},{"dx":6,"dy":-1},{"dx":14,"dy":-5},{"dx":7,"dy":-3},{"dx":8,"dy":-5},{"dx":13,"dy":-8},{"dx":10,"dy":-9},{"dx":10,"dy":-9},{"dx":13,"dy":-11},{"dx":10,"dy":-9},{"dx":9,"dy":-8},{"dx":5,"dy":-4},{"dx":3,"dy":-3},{"dx":3,"dy":-4},{"dx":1,"dy":-1},{"dx":2,"dy":-5},{"dx":2,"dy":-5},{"dx":2,"dy":-6},{"dx":2,"dy":-7},{"dx":2,"dy":-10},{"dx":3,"dy":-13},{"dx":1,"dy":-5},{"dx":1,"dy":-5},{"dx":1,"dy":-6},{"dx":1,"dy":-8},{"dx":0,"dy":-7},{"dx":0,"dy":-13},{"dx":-2,"dy":-7},{"dx":-3,"dy":-7},{"dx":-10,"dy":-15},{"dx":-8,"dy":-7},{"dx":-7,"dy":-7},{"dx":-11,"dy":-9},{"dx":-8,"dy":-6},{"dx":-9,"dy":-6},{"dx":-16,"dy":-11},{"dx":-10,"dy":-8},{"dx":-10,"dy":-5},{"dx":-9,"dy":-5},{"dx":-8,"dy":-3},{"dx":-6,"dy":-2},{"dx":-11,"dy":-5},{"dx":-6,"dy":-2},{"dx":-7,"dy":-1},{"dx":-5,"dy":0},{"dx":-5,"dy":0},{"dx":-4,"dy":0},{"dx":-10,"dy":1},{"dx":-5,"dy":2},{"dx":-4,"dy":2},{"dx":-4,"dy":3},{"dx":-3,"dy":3},{"dx":-4,"dy":5},{"dx":-7,"dy":9},{"dx":-3,"dy":3},{"dx":-4,"dy":5},{"dx":-6,"dy":3},{"dx":-8,"dy":4},{"dx":-5,"dy":2},{"dx":-6,"dy":3},{"dx":-4,"dy":1},{"dx":-1,"dy":0},{"dx":-1,"dy":0},{"dx":-1,"dy":0},{"dx":-1,"dy":0},{"dx":-5,"dy":-1},{"dx":-4,"dy":-3},{"dx":-10,"dy":-7},{"dx":-12,"dy":-12},{"dx":-7,"dy":-8},{"dx":-8,"dy":-6},{"dx":-13,"dy":-6},{"dx":-9,"dy":-1},{"dx":-7,"dy":-2},{"dx":-7,"dy":0},{"dx":-7,"dy":1},{"dx":-6,"dy":2},{"dx":-13,"dy":6},{"dx":-6,"dy":3},{"dx":-5,"dy":4},{"dx":-6,"dy":5},{"dx":-5,"dy":4},{"dx":-5,"dy":5},{"dx":-10,"dy":10},{"dx":-5,"dy":4},{"dx":-3,"dy":6},{"dx":-4,"dy":5},{"dx":-3,"dy":7},{"dx":-3,"dy":6},{"dx":-2,"dy":7},{"dx":-1,"dy":15},{"dx":1,"dy":8},{"dx":3,"dy":8},{"dx":5,"dy":10},{"dx":6,"dy":11},{"dx":6,"dy":10},{"dx":10,"dy":11},{"dx":5,"dy":6},{"dx":5,"dy":6},{"dx":4,"dy":5},{"dx":4,"dy":6},{"dx":9,"dy":11},{"dx":5,"dy":8},{"dx":5,"dy":6},{"dx":4,"dy":7},{"dx":5,"dy":7},{"dx":3,"dy":5},{"dx":5,"dy":4},{"dx":10,"dy":9},{"dx":8,"dy":6},{"dx":8,"dy":4},{"dx":8,"dy":5},{"dx":5,"dy":3},{"dx":8,"dy":5},{"dx":6,"dy":2},{"dx":6,"dy":2},{"dx":5,"dy":1},{"dx":6,"dy":1},{"dx":4,"dy":1},{"dx":4,"dy":0},{"dx":11,"dy":-1},{"dx":6,"dy":0},{"dx":6,"dy":-2},{"dx":7,"dy":-1},{"dx":14,"dy":-2},{"dx":11,"dy":-2},{"dx":13,"dy":-2},{"dx":11,"dy":-1},{"dx":13,"dy":0},{"dx":10,"dy":-1},{"dx":7,"dy":0},{"dx":10,"dy":-1},{"dx":10,"dy":0},{"dx":6,"dy":0},{"dx":5,"dy":0},{"dx":8,"dy":-1},{"dx":1,"dy":-1},{"dx":7,"dy":0},{"dx":9,"dy":-3},{"dx":4,"dy":-1},{"dx":3,"dy":-2},{"dx":5,"dy":-3},{"dx":4,"dy":-3},{"dx":9,"dy":-8},{"dx":13,"dy":-10},{"dx":9,"dy":-7},{"dx":7,"dy":-9},{"dx":11,"dy":-14},{"dx":7,"dy":-9},{"dx":7,"dy":-9},{"dx":4,"dy":-6},{"dx":3,"dy":-6},{"dx":3,"dy":-5},{"dx":2,"dy":-10},{"dx":1,"dy":-2},{"dx":0,"dy":-5},{"dx":0,"dy":-5},{"dx":-1,"dy":-7},{"dx":0,"dy":-1},{"dx":-5,"dy":-11},{"dx":-3,"dy":-5},{"dx":-3,"dy":-4},{"dx":-2,"dy":-4},{"dx":-5,"dy":-4},{"dx":-3,"dy":-4},{"dx":-7,"dy":-6},{"dx":-3,"dy":-4},{"dx":-3,"dy":-3},{"dx":-2,"dy":-4},{"dx":-2,"dy":-5},{"dx":-3,"dy":-5},{"dx":-2,"dy":-7},{"dx":0,"dy":-1},{"dx":-1,"dy":-6},{"dx":-1,"dy":-6},{"dx":0,"dy":-6},{"dx":-1,"dy":-5},{"dx":-2,"dy":-6},{"dx":0,"dy":-1},{"dx":-2,"dy":-5},{"dx":-4,"dy":-5},{"dx":-3,"dy":-4},{"dx":-4,"dy":-4},{"dx":-3,"dy":-4},{"dx":-2,"dy":-4},{"dx":-1,"dy":-5},{"dx":0,"dy":-7},{"dx":0,"dy":-1},{"dx":2,"dy":-5},{"dx":0,"dy":-1},{"dx":0,"dy":-1},{"dx":-2,"dy":-4},{"dx":-11,"dy":-7},{"dx":-9,"dy":-4},{"dx":-10,"dy":-5},{"dx":-21,"dy":-6},{"dx":-11,"dy":-3},{"dx":-10,"dy":-2},{"dx":-13,"dy":-1},{"dx":-8,"dy":0},{"dx":-6,"dy":1},{"dx":-5,"dy":2},{"dx":-6,"dy":4},{"dx":-6,"dy":5},{"dx":-16,"dy":12},{"dx":-8,"dy":7},{"dx":-6,"dy":6},{"dx":-5,"dy":6},{"dx":-5,"dy":5},{"dx":-5,"dy":6},{"dx":-8,"dy":10},{"dx":-6,"dy":7},{"dx":-6,"dy":7},{"dx":-4,"dy":7},{"dx":-4,"dy":6},{"dx":-9,"dy":8},{"dx":-13,"dy":12},{"dx":-8,"dy":7},{"dx":-4,"dy":4},{"dx":-8,"dy":10},{"dx":-5,"dy":5},{"dx":-5,"dy":4},{"dx":-5,"dy":4},{"dx":-6,"dy":5},{"dx":-4,"dy":3},{"dx":-4,"dy":4},{"dx":-4,"dy":2},{"dx":-4,"dy":4},{"dx":-4,"dy":3},{"dx":0,"dy":1},{"dx":-1,"dy":5},{"dx":-4,"dy":10},{"dx":-2,"dy":5},{"dx":-1,"dy":5},{"dx":-1,"dy":5},{"dx":-1,"dy":8},{"dx":-1,"dy":5},{"dx":0,"dy":7},{"dx":3,"dy":5},{"dx":3,"dy":5},{"dx":3,"dy":3},{"dx":6,"dy":4},{"dx":16,"dy":8},{"dx":28,"dy":12},{"dx":18,"dy":6},{"dx":21,"dy":10},{"dx":20,"dy":12},{"dx":8,"dy":9},{"dx":7,"dy":9},{"dx":7,"dy":11},{"dx":4,"dy":8},{"dx":2,"dy":5},{"dx":2,"dy":6},{"dx":2,"dy":5},{"dx":2,"dy":6},{"dx":9,"dy":13},{"dx":9,"dy":8},{"dx":12,"dy":8},{"dx":17,"dy":12},{"dx":14,"dy":6},{"dx":12,"dy":7},{"dx":11,"dy":5},{"dx":6,"dy":4},{"dx":5,"dy":3},{"dx":4,"dy":3},{"dx":0,"dy":0},{"dx":0,"dy":1},{"dx":-9,"dy":6},{"dx":-15,"dy":3},{"dx":-17,"dy":4},{"dx":-35,"dy":5},{"dx":-16,"dy":2},{"dx":-15,"dy":2},{"dx":-20,"dy":1},{"dx":-6,"dy":0},{"dx":-13,"dy":-1},{"dx":-19,"dy":-1},{"dx":-10,"dy":-2},{"dx":-7,"dy":-4},{"dx":-14,"dy":-7},{"dx":-11,"dy":-8},{"dx":-11,"dy":-12},{"dx":-15,"dy":-18},{"dx":-9,"dy":-11},{"dx":-7,"dy":-12},{"dx":-8,"dy":-11},{"dx":-9,"dy":-14},{"dx":-5,"dy":-8},{"dx":-3,"dy":-6},{"dx":-4,"dy":-8},{"dx":-3,"dy":-9},{"dx":0,"dy":-8},{"dx":1,"dy":-19},{"dx":4,"dy":-13},{"dx":6,"dy":-14},{"dx":12,"dy":-19},{"dx":9,"dy":-11},{"dx":9,"dy":-13},{"dx":16,"dy":-18},{"dx":12,"dy":-12},{"dx":12,"dy":-10},{"dx":14,"dy":-14},{"dx":4,"dy":-5},{"dx":4,"dy":-4},{"dx":8,"dy":-6},{"dx":0,"dy":0},{"dx":3,"dy":-3},{"dx":1,"dy":-1},{"dx":1,"dy":-1},{"dx":3,"dy":-4},{"dx":0,"dy":-1},{"dx":1,"dy":-5},{"dx":1,"dy":-7},{"dx":5,"dy":-13},{"dx":5,"dy":-8},{"dx":4,"dy":-7},{"dx":9,"dy":-13},{"dx":7,"dy":-10},{"dx":7,"dy":-10},{"dx":5,"dy":-6},{"dx":5,"dy":-4},{"dx":4,"dy":-4},{"dx":9,"dy":-5},{"dx":6,"dy":-1},{"dx":6,"dy":-2},{"dx":6,"dy":0},{"dx":16,"dy":0},{"dx":14,"dy":1},{"dx":19,"dy":4},{"dx":16,"dy":4},{"dx":13,"dy":4},{"dx":17,"dy":10},{"dx":11,"dy":9},{"dx":10,"dy":10},{"dx":12,"dy":17},{"dx":7,"dy":15},{"dx":5,"dy":14},{"dx":5,"dy":22},{"dx":1,"dy":17},{"dx":0,"dy":15},{"dx":-8,"dy":21},{"dx":-10,"dy":14},{"dx":-13,"dy":12},{"dx":-25,"dy":15},{"dx":-20,"dy":8},{"dx":-20,"dy":9},{"dx":-32,"dy":11},{"dx":-14,"dy":8},{"dx":-15,"dy":6},{"dx":-21,"dy":9},{"dx":-14,"dy":6},{"dx":-18,"dy":6},{"dx":-21,"dy":6},{"dx":-11,"dy":3},{"dx":-13,"dy":2},{"dx":-19,"dy":2},{"dx":-5,"dy":0},{"dx":-7,"dy":0},{"dx":-18,"dy":-1},{"dx":-5,"dy":0},{"dx":-7,"dy":-2},{"dx":-9,"dy":-2},{"dx":-5,"dy":-2},{"dx":-6,"dy":-1},{"dx":-8,"dy":-2},{"dx":-12,"dy":-1},{"dx":-11,"dy":-1},{"dx":-12,"dy":0},{"dx":-7,"dy":0},{"dx":-5,"dy":0},{"dx":0,"dy":0},{"dx":0,"dy":0},{"dx":2,"dy":3},{"dx":9,"dy":9},{"dx":9,"dy":8},{"dx":10,"dy":9},{"dx":12,"dy":9},{"dx":18,"dy":12},{"dx":9,"dy":7},{"dx":10,"dy":7},{"dx":22,"dy":5},{"dx":12,"dy":2},{"dx":11,"dy":1},{"dx":19,"dy":1},{"dx":11,"dy":0},{"dx":9,"dy":0},{"dx":15,"dy":0},{"dx":10,"dy":-1},{"dx":10,"dy":-4},{"dx":19,"dy":-8},{"dx":13,"dy":-6},{"dx":10,"dy":-4},{"dx":8,"dy":-5},{"dx":8,"dy":-3},{"dx":6,"dy":-4},{"dx":11,"dy":-5},{"dx":5,"dy":-4},{"dx":2,"dy":-2},{"dx":4,"dy":-4},{"dx":0,"dy":0},{"dx":1,"dy":0},{"dx":0,"dy":-2},{"dx":1,"dy":-1},{"dx":0,"dy":-6}],"trial_type":"plugin-moving-dots-2","trial_index":24,"plugin_version":"0.0.1","time_elapsed":120253},{"task":"fixation","rt":603,"stimulus":"<div style=\"font-size:60px;\">+</div>","response":" ","trial_type":"html-keyboard-response","trial_index":25,"plugin_version":"2.1.0","time_elapsed":120858},{"task":"movingdots","control_change":0,"mouse_data":[{"dx":0,"dy":0},{"dx":0,"dy":1},{"dx":1,"dy":5},{"dx":1,"dy":0},{"dx":4,"dy":1},{"dx":5,"dy":0},{"dx":5,"dy":-4},{"dx":0,"dy":0},{"dx":3,"dy":-3},{"dx":0,"dy":-7},{"dx":0,"dy":-1},{"dx":-2,"dy":-3},{"dx":-4,"dy":-3},{"dx":-5,"dy":-1},{"dx":-5,"dy":0},{"dx":-11,"dy":0},{"dx":-7,"dy":1},{"dx":-8,"dy":3},{"dx":-6,"dy":3},{"dx":-7,"dy":5},{"dx":-5,"dy":6},{"dx":-11,"dy":11},{"dx":-7,"dy":5},{"dx":-7,"dy":5},{"dx":-7,"dy":4},{"dx":-7,"dy":4},{"dx":-5,"dy":3},{"dx":-8,"dy":5},{"dx":-1,"dy":1},{"dx":-4,"dy":4},{"dx":-2,"dy":12},{"dx":-1,"dy":5},{"dx":0,"dy":6},{"dx":2,"dy":8},{"dx":2,"dy":7},{"dx":3,"dy":7},{"dx":7,"dy":11},{"dx":5,"dy":6},{"dx":5,"dy":3},{"dx":11,"dy":8},{"dx":6,"dy":3},{"dx":6,"dy":3},{"dx":7,"dy":3},{"dx":7,"dy":3},{"dx":7,"dy":4},{"dx":10,"dy":6},{"dx":8,"dy":3},{"dx":10,"dy":2},{"dx":8,"dy":2},{"dx":12,"dy":2},{"dx":13,"dy":-1},{"dx":21,"dy":-5},{"dx":15,"dy":-6},{"dx":19,"dy":-8},{"dx":17,"dy":-8},{"dx":6,"dy":-3},{"dx":6,"dy":-2},{"dx":5,"dy":-3},{"dx":5,"dy":-2},{"dx":5,"dy":-3},{"dx":7,"dy":-6},{"dx":0,"dy":0},{"dx":4,"dy":-5},{"dx":4,"dy":-8},{"dx":3,"dy":-9},{"dx":1,"dy":-8},{"dx":2,"dy":-7},{"dx":0,"dy":-6},{"dx":1,"dy":-6},{"dx":1,"dy":-12},{"dx":-1,"dy":-7},{"dx":-1,"dy":-7},{"dx":-2,"dy":-6},{"dx":-2,"dy":-5},{"dx":-2,"dy":-7},{"dx":-3,"dy":-18},{"dx":0,"dy":-8},{"dx":-1,"dy":-9},{"dx":-1,"dy":-8},{"dx":-2,"dy":-15},{"dx":-1,"dy":-8},{"dx":-1,"dy":-4},{"dx":-2,"dy":-6},{"dx":-2,"dy":-5},{"dx":-7,"dy":-8},{"dx":-3,"dy":-3},{"dx":-5,"dy":-5},{"dx":-4,"dy":-3},{"dx":-5,"dy":-4},{"dx":-4,"dy":-2},{"dx":-9,"dy":-4},{"dx":-4,"dy":-2},{"dx":-5,"dy":-2},{"dx":-6