[{"success":true,"rt":119724,"trial_type":"fullscreen","trial_index":0,"plugin_version":"2.1.0","time_elapsed":120755},{"task":"fixation","rt":11082,"stimulus":"<div style=\"font-size:60px;\">+</div>","response":" ","trial_type":"html-keyboard-response","trial_index":1,"plugin_version":"2.1.0","time_elapsed":131839},{"task":"movingdots","control_change":0,"mouse_data":[{"dx":0,"dy":0},{"dx":0,"dy":0},{"dx":0,"dy":0},{"dx":0,"dy":0},{"dx":0,"dy":0},{"dx":0,"dy":0},{"dx":0,"dy":0},{"dx":0,"dy":0},{"dx":0,"dy":0},{"dx":0,"dy":0},{"dx":0,"dy":0},{"dx":0,"dy":0},{"dx":0,"dy":0},{"dx":0,"dy":0},{"dx":0,"dy":0},{"dx":0,"dy":0},{"dx":0,"dy":0},{"dx":0,"dy":0},{"dx":0,"dy":0},{"dx":0,"dy":0},{"dx":0,"dy":0},{"dx":0,"dy":0},{"dx":0,"dy":0},{"dx":0,"dy":0},{"dx":0,"dy":0},{"dx":0,"dy":0},{"dx":0,"dy":0},{"dx":0,"dy":0},{"dx":0,"dy":0},{"dx":0,"dy":0},{"dx":0,"dy":0},{"dx":0,"dy":0},{"dx":0,"dy":0},{"dx":0,"dy":0},{"dx":0,"dy":0},{"dx":0,"dy":0},{"dx":0,"dy":0},{"dx":0,"dy":0},{"dx":0,"dy":0},{"dx":0,"dy":0},{"dx":0,"dy":0},{"dx":0,"dy":0},{"dx":0,"dy":0},{"dx":0,"dy":0},{"dx":0,"dy":0},{"dx":0,"dy":0},{"dx":0,"dy":0},{"dx":0,"dy":0},{"dx":0,"dy":0},{"dx":0,"dy":0},{"dx":0,"dy":0},{"dx":0,"dy":0},{"dx":0,"dy":0},{"dx":0,"dy":0},{"dx":0,"dy":0},{"dx":0,"dy":0},{"dx":0,"dy":0},{"dx":0,"dy":0},{"dx":0,"dy":0},{"dx":0,"dy":0},{"dx":0,"dy":0},{"dx":0,"dy":0},{"dx":0,"dy":0},{"dx":0,"dy":0},{"dx":0,"dy":0},{"dx":0,"dy":0},{"dx":0,"dy":0},{"dx":0,"dy":0},{"dx":0,"dy":0},{"dx":0,"dy":0},{"dx":0,"dy":0},{"dx":0,"dy":0},{"dx":0,"dy":0},{"dx":0,"dy":0},{"dx":0,"dy":0},{"dx":0,"dy":0},{"dx":0,"dy":0},{"dx":0,"dy":0},{"dx":0,"dy":0},{"dx":0,"dy":0},{"dx":0,"dy":0},{"dx":0,"dy":0},{"dx":0,"dy":0},{"dx":0,"dy":0},{"dx":0,"dy":0},{"dx":0,"dy":0},{"dx":0,"dy":0},{"dx":0,"dy":0},{"dx":0,"dy":0},{"dx":0,"dy":0},{"dx":0,"dy":0},{"dx":0,"dy":0},{"dx":0,"dy":0},{"dx":0,"dy":0},{"dx":0,"dy":0},{"dx":0,"dy":0},{"dx":0,"dy":0},{"dx":0,"dy":0},{"dx":0,"dy":0},{"dx":0,"dy":0},{"dx":0,"dy":0},{"dx":0,"dy":0},{"dx":0,"dy":0},{"dx":0,"dy":0},{"dx":0,"dy":0},{"dx":0,"dy":0},{"dx":0,"dy":0},{"dx":0,"dy":0},{"dx":0,"dy":0},{"dx":0,"dy":0},{"dx":0,"dy":0},{"dx":0,"dy":0},{"dx":0,"dy":0},{"dx":0,"dy":0},{"dx":0,"dy":0},{"dx":0,"dy":0},{"dx":0,"dy":0},{"dx":0,"dy":0},{"dx":0,"dy":0},{"dx":0,"dy":0},{"dx":0,"dy":0},{"dx":0,"dy":0},{"dx":0,"dy":0},{"dx":0,"dy":0},{"dx":0,"dy":0},{"dx":0,"dy":0},{"dx":0,"dy":0},{"dx":0,"dy":0},{"dx":0,"dy":0},{"dx":0,"dy":0},{"dx":0,"dy":0},{"dx":0,"dy":0},{"dx":0,"dy":0},{"dx":0,"dy":0},{"dx":0,"dy":0},{"dx":0,"dy":0},{"dx":0,"dy":0},{"dx":0,"dy":0},{"dx":0,"dy":0},{"dx":0,"dy":0},{"dx":0,"dy":0},{"dx":0,"dy":0},{"dx":0,"dy":0},{"dx":0,"dy":0},{"dx":0,"dy":0},{"dx":0,"dy":0},{"dx":0,"dy":0},{"dx":0,"dy":0},{"dx":0,"dy":0},{"dx":0,"dy":0},{"dx":0,"dy":0},{"dx":0,"dy":0},{"dx":0,"dy":0},{"dx":0,"dy":0},{"dx":0,"dy":0},{"dx":0,"dy":0},{"dx":0,"dy":0},{"dx":0,"dy":0},{"dx":0,"dy":0},{"dx":0,"dy":0},{"dx":0,"dy":0},{"dx":0,"dy":0},{"dx":0,"dy":0},{"dx":0,"dy":0},{"dx":0,"dy":0},{"dx":0,"dy":0},{"dx":0,"dy":0},{"dx":0,"dy":0},{"dx":0,"dy":0},{"dx":0,"dy":0},{"dx":0,"dy":0},{"dx":0,"dy":0},{"dx":0,"dy":0},{"dx":0,"dy":0},{"dx":0,"dy":0},{"dx":0,"dy":0},{"dx":0,"dy":0},{"dx":0,"dy":0},{"dx":0,"dy":0},{"dx":0,"dy":0},{"dx":0,"dy":0},{"dx":0,"dy":0},{"dx":0,"dy":0},{"dx":0,"dy":0},{"dx":0,"dy":0},{"dx":0,"dy":0},{"dx":0,"dy":0},{"dx":0,"dy":0},{"dx":0,"dy":0},{"dx":0,"dy":0},{"dx":0,"dy":0},{"dx":0,"dy":0},{"dx":0,"dy":0},{"dx":0,"dy":0},{"dx":0,"dy":0},{"dx":0,"dy":0},{"dx":0,"dy":0},{"dx":0,"dy":0},{"dx":0,"dy":0},{"dx":0,"dy":0},{"dx":0,"dy":0},{"dx":0,"dy":0},{"dx":0,"dy":0},{"dx":0,"dy":0},{"dx":0,"dy":0},{"dx":0,"dy":0},{"dx":0,"dy":0},{"dx":0,"dy":0},{"dx":0,"dy":0},{"dx":0,"dy":0},{"dx":0,"dy":0},{"dx":0,"dy":0},{"dx":0,"dy":0},{"dx":0,"dy":0},{"dx":0,"dy":0},{"dx":0,"dy":0},{"dx":0,"dy":0},{"dx":0,"dy":0},{"dx":0,"dy":0},{"dx":0,"dy":0},{"dx":0,"dy":0},{"dx":0,"dy":0},{"dx":2,"dy":0},{"dx":0,"dy":0},{"dx":4,"dy":-3},{"dx":1,"dy":-1},{"dx":3,"dy":-3},{"dx":1,"dy":-1},{"dx":3,"dy":-4},{"dx":1,"dy":-1},{"dx":3,"dy":-4},{"dx":3,"dy":-6},{"dx":0,"dy":0},{"dx":0,"dy":-1},{"dx":1,"dy":-2},{"dx":0,"dy":-1},{"dx":1,"dy":-2},{"dx":0,"dy":0},{"dx":0,"dy":-1},{"dx":0,"dy":0},{"dx":1,"dy":-1},{"dx":0,"dy":0},{"dx":0,"dy":0},{"dx":0,"dy":0},{"dx":0,"dy":0},{"dx":0,"dy":0},{"dx":0,"dy":0},{"dx":0,"dy":-1},{"dx":-1,"dy":0},{"dx":-1,"dy":0},{"dx":-1,"dy":0},{"dx":-2,"dy":0},{"dx":-3,"dy":3},{"dx":-4,"dy":4},{"dx":-4,"dy":3},{"dx":-5,"dy":4},{"dx":0,"dy":1},{"dx":-3,"dy":3},{"dx":-3,"dy":5},{"dx":-1,"dy":0},{"dx":-2,"dy":4},{"dx":-3,"dy":3},{"dx":-1,"dy":1},{"dx":-3,"dy":4},{"dx":-2,"dy":2},{"dx":-1,"dy":1},{"dx":0,"dy":1},{"dx":-1,"dy":2},{"dx":0,"dy":1},{"dx":0,"dy":0},{"dx":0,"dy":2},{"dx":0,"dy":0},{"dx":0,"dy":1},{"dx":0,"dy":1},{"dx":0,"dy":0},{"dx":0,"dy":0},{"dx":0,"dy":0},{"dx":1,"dy":1},{"dx":1,"dy":0},{"dx":1,"dy":0},{"dx":0,"dy":0},{"dx":1,"dy":0},{"dx":1,"dy":0},{"dx":0,"dy":0},{"dx":0,"dy":0},{"dx":0,"dy":0},{"dx":0,"dy":0},{"dx":0,"dy":0},{"dx":0,"dy":0},{"dx":1,"dy":-1},{"dx":0,"dy":0},{"dx":1,"dy":-1},{"dx":1,"dy":-1},{"dx":0,"dy":0},{"dx":0,"dy":0},{"dx":0,"dy":0},{"dx":0,"dy":0},{"dx":0,"dy":0},{"dx":0,"dy":0},{"dx":0,"dy":0},{"dx":0,"dy":0},{"dx":0,"dy":0},{"dx":0,"dy":0},{"dx":0,"dy":0},{"dx":0,"dy":0},{"dx":0,"dy":0},{"dx":0,"dy":0},{"dx":0,"dy":0},{"dx":0,"dy":0},{"dx":0,"dy":0},{"dx":0,"dy":0},{"dx":0,"dy":0},{"dx":0,"dy":0},{"dx":0,"dy":0},{"dx":0,"dy":0},{"dx":0,"dy":0},{"dx":0,"dy":0},{"dx":0,"dy":0},{"dx":0,"dy":0},{"dx":0,"dy":0},{"dx":0,"dy":0},{"dx":0,"dy":0},{"dx":0,"dy":0},{"dx":0,"dy":0},{"dx":0,"dy":0},{"dx":0,"dy":0},{"dx":0,"dy":0},{"dx":0,"dy":0},{"dx":0,"dy":-1},{"dx":0,"dy":0},{"dx":0,"dy":0},{"dx":0,"dy":0},{"dx":0,"dy":0},{"dx":0,"dy":0},{"dx":0,"dy":0},{"dx":0,"dy":0},{"dx":0,"dy":0},{"dx":0,"dy":0},{"dx":0,"dy":0},{"dx":0,"dy":0},{"dx":0,"dy":0},{"dx":0,"dy":0},{"dx":0,"dy":0},{"dx":0,"dy":0},{"dx":0,"dy":0},{"dx":0,"dy":0},{"dx":0,"dy":0},{"dx":0,"dy":0},{"dx":0,"dy":0},{"dx":0,"dy":0},{"dx":0,"dy":0},{"dx":0,"dy":0},{"dx":0,"dy":0},{"dx":0,"dy":0},{"dx":0,"dy":0},{"dx":0,"dy":0},{"dx":0,"dy":0},{"dx":0,"dy":0},{"dx":0,"dy":0},{"dx":0,"dy":0},{"dx":0,"dy":0},{"dx":0,"dy":0},{"dx":0,"dy":0},{"dx":0,"dy":0},{"dx":0,"dy":0},{"dx":0,"dy":0},{"dx":0,"dy":0},{"dx":0,"dy":0},{"dx":0,"dy":0},{"dx":0,"dy":0},{"dx":0,"dy":0},{"dx":0,"dy":0},{"dx":0,"dy":0},{"dx":0,"dy":0},{"dx":0,"dy":0},{"dx":0,"dy":0},{"dx":0,"dy":0},{"dx":0,"dy":0},{"dx":0,"dy":0},{"dx":0,"dy":0},{"dx":0,"dy":0},{"dx":0,"dy":0},{"dx":0,"dy":0},{"dx":0,"dy":0},{"dx":0,"dy":0},{"dx":0,"dy":0},{"dx":0,"dy":0},{"dx":0,"dy":0},{"dx":0,"dy":0},{"dx":0,"dy":0},{"dx":0,"dy":0},{"dx":0,"dy":0},{"dx":0,"dy":0},{"dx":0,"dy":0},{"dx":0,"dy":0},{"dx":0,"dy":0},{"dx":0,"dy":0},{"dx":0,"dy":0},{"dx":0,"dy":0},{"dx":0,"dy":0},{"dx":0,"dy":0},{"dx":0,"dy":0},{"dx":0,"dy":0},{"dx":0,"dy":0},{"dx":0,"dy":0},{"dx":0,"dy":0},{"dx":0,"dy":0},{"dx":0,"dy":0},{"dx":0,"dy":0},{"dx":0,"dy":0},{"dx":0,"dy":0},{"dx":0,"dy":0},{"dx":0,"dy":0},{"dx":0,"dy":0},{"dx":0,"dy":0},{"dx":0,"dy":0},{"dx":0,"dy":0},{"dx":0,"dy":0},{"dx":0,"dy":0},{"dx":0,"dy":0},{"dx":0,"dy":0},{"dx":0,"dy":0},{"dx":0,"dy":0},{"dx":0,"dy":0},{"dx":0,"dy":0},{"dx":0,"dy":0},{"dx":0,"dy":0},{"dx":0,"dy":0},{"dx":0,"dy":0},{"dx":0,"dy":0},{"dx":0,"dy":0},{"dx":0,"dy":0},{"dx":0,"dy":0},{"dx":0,"dy":0},{"dx":0,"dy":0},{"dx":0,"dy":0},{"dx":0,"dy":0},{"dx":0,"dy":0},{"dx":0,"dy":0},{"dx":0,"dy":0},{"dx":0,"dy":0},{"dx":0,"dy":0},{"dx":0,"dy":0},{"dx":0,"dy":-1},{"dx":0,"dy":0},{"dx":0,"dy":0},{"dx":0,"dy":-1},{"dx":0,"dy":0},{"dx":0,"dy":-1},{"dx":1,"dy":0},{"dx":0,"dy":-1},{"dx":0,"dy":-1}],"trial_type":"plugin-moving-dots-2","trial_index":2,"plugin_version":"0.0.1","time_elapsed":139352},{"task":"fixation","rt":7109,"stimulus":"<div style=\"font-size:60px;\">+</div>","response":" ","trial_type":"html-keyboard-response","trial_index":3,"plugin_version":"2.1.0","time_elapsed":146463},{"task":"movingdots","control_change":0,"mouse_data":[{"dx":0,"dy":0},{"dx":0,"dy":0},{"dx":0,"dy":0},{"dx":0,"dy":0},{"dx":0,"dy":0},{"dx":0,"dy":0},{"dx":0,"dy":0},{"dx":0,"dy":0},{"dx":0,"dy":0},{"dx":0,"dy":0},{"dx":0,"dy":0},{"dx":0,"dy":0},{"dx":0,"dy":0},{"dx":0,"dy":0},{"dx":0,"dy":0},{"dx":0,"dy":0},{"dx":0,"dy":0},{"dx":0,"dy":0},{"dx":0,"dy":0},{"dx":0,"dy":0},{"dx":0,"dy":0},{"dx":0,"dy":0},{"dx":0,"dy":0},{"dx":0,"dy":0},{"dx":0,"dy":0},{"dx":0,"dy":0},{"dx":0,"dy":0},{"dx":0,"dy":0},{"dx":0,"dy":0},{"dx":0,"dy":0},{"dx":0,"dy":0},{"dx":0,"dy":0},{"dx":0,"dy":0},{"dx":0,"dy":0},{"dx":-2,"dy":-3},{"dx":-4,"dy":-6},{"dx":-5,"dy":-4},{"dx":-4,"dy":-3},{"dx":-5,"dy":-2},{"dx":-5,"dy":-1},{"dx":-4,"dy":0},{"dx":-5,"dy":0},{"dx":-6,"dy":2},{"dx":-3,"dy":1},{"dx":-1,"dy":0},{"dx":-4,"dy":3},{"dx":-4,"dy":4},{"dx":-4,"dy":4},{"dx":-3,"dy":4},{"dx":-3,"dy":3},{"dx":0,"dy":1},{"dx":0,"dy":6},{"dx":0,"dy":7},{"dx":2,"dy":5},{"dx":12,"dy":14},{"dx":9,"dy":8},{"dx":9,"dy":4},{"dx":8,"dy":4},{"dx":6,"dy":2},{"dx":4,"dy":2},{"dx":12,"dy":2},{"dx":5,"dy":0},{"dx":7,"dy":-2},{"dx":8,"dy":-4},{"dx":11,"dy":-5},{"dx":5,"dy":-3},{"dx":10,"dy":-9},{"dx":3,"dy":-5},{"dx":2,"dy":-4},{"dx":3,"dy":-7},{"dx":1,"dy":-7},{"dx":1,"dy":-5},{"dx":-2,"dy":-10},{"dx":-2,"dy":-6},{"dx":-4,"dy":-6},{"dx":-6,"dy":-7},{"dx":-5,"dy":-5},{"dx":-6,"dy":-4},{"dx":-10,"dy":-6},{"dx":-7,"dy":-1},{"dx":-7,"dy":-2},{"dx":-14,"dy":0},{"dx":-11,"dy":0},{"dx":-9,"dy":1},{"dx":-15,"dy":5},{"dx":-11,"dy":5},{"dx":-12,"dy":8},{"dx":-17,"dy":16},{"dx":-11,"dy":14},{"dx":-9,"dy":14},{"dx":-10,"dy":21},{"dx":-2,"dy":11},{"dx":0,"dy":7},{"dx":10,"dy":15},{"dx":17,"dy":9},{"dx":25,"dy":9},{"dx":63,"dy":7},{"dx":47,"dy":0},{"dx":42,"dy":-3},{"dx":55,"dy":-15},{"dx":39,"dy":-16},{"dx":35,"dy":-20},{"dx":66,"dy":-54},{"dx":26,"dy":-26},{"dx":24,"dy":-32},{"dx":14,"dy":-23},{"dx":1,"dy":-14},{"dx":-15,"dy":-29},{"dx":-46,"dy":-39},{"dx":-50,"dy":-30},{"dx":-57,"dy":-27},{"dx":-84,"dy":-25},{"dx":-57,"dy":-10},{"dx":-41,"dy":-5},{"dx":-57,"dy":0},{"dx":-36,"dy":5},{"dx":-34,"dy":12},{"dx":-36,"dy":17},{"dx":-42,"dy":26},{"dx":-21,"dy":14},{"dx":-12,"dy":11},{"dx":-13,"dy":19},{"dx":-5,"dy":14},{"dx":-4,"dy":23},{"dx":0,"dy":40},{"dx":5,"dy":28},{"dx":10,"dy":22},{"dx":22,"dy":25},{"dx":24,"dy":14},{"dx":33,"dy":10},{"dx":65,"dy":15},{"dx":47,"dy":5},{"dx":49,"dy":4},{"dx":79,"dy":-11},{"dx":55,"dy":-15},{"dx":51,"dy":-17},{"dx":62,"dy":-35},{"dx":36,"dy":-28},{"dx":30,"dy":-39},{"dx":7,"dy":-21},{"dx":0,"dy":-16},{"dx":-22,"dy":-29},{"dx":-69,"dy":-47},{"dx":-59,"dy":-23},{"dx":-72,"dy":-21},{"dx":-99,"dy":-20},{"dx":-54,"dy":1},{"dx":-48,"dy":6},{"dx":-65,"dy":23},{"dx":-38,"dy":23},{"dx":-39,"dy":36},{"dx":-42,"dy":63},{"dx":-18,"dy":44},{"dx":-8,"dy":41},{"dx":-1,"dy":49},{"dx":6,"dy":15},{"dx":29,"dy":16},{"dx":47,"dy":5},{"dx":52,"dy":1},{"dx":54,"dy":0},{"dx":66,"dy":-4},{"dx":43,"dy":-8},{"dx":42,"dy":-10},{"dx":75,"dy":-24},{"dx":49,"dy":-20},{"dx":41,"dy":-23},{"dx":50,"dy":-36},{"dx":18,"dy":-17},{"dx":10,"dy":-21},{"dx":3,"dy":-21},{"dx":-12,"dy":-20},{"dx":-37,"dy":-33},{"dx":-74,"dy":-33},{"dx":-56,"dy":-15},{"dx":-59,"dy":-9},{"dx":-74,"dy":0},{"dx":-42,"dy":9},{"dx":-46,"dy":18},{"dx":-63,"dy":47},{"dx":-34,"dy":43},{"dx":-24,"dy":46},{"dx":-20,"dy":75},{"dx":-1,"dy":36},{"dx":7,"dy":25},{"dx":30,"dy":26},{"dx":28,"dy":14},{"dx":36,"dy":9},{"dx":47,"dy":7},{"dx":21,"dy":0},{"dx":22,"dy":-1},{"dx":34,"dy":-4},{"dx":31,"dy":-10},{"dx":38,"dy":-19},{"dx":65,"dy":-41},{"dx":42,"dy":-30},{"dx":42,"dy":-34},{"dx":33,"dy":-35},{"dx":14,"dy":-27},{"dx":3,"dy":-16},{"dx":-19,"dy":-31},{"dx":-47,"dy":-39},{"dx":-58,"dy":-28},{"dx":-82,"dy":-27},{"dx":-53,"dy":-11},{"dx":-49,"dy":-2},{"dx":-62,"dy":9},{"dx":-35,"dy":15},{"dx":-34,"dy":26},{"dx":-37,"dy":54},{"dx":-21,"dy":53},{"dx":-10,"dy":52},{"dx":9,"dy":68},{"dx":20,"dy":35},{"dx":30,"dy":25},{"dx":57,"dy":22},{"dx":34,"dy":8},{"dx":34,"dy":5},{"dx":38,"dy":0},{"dx":33,"dy":-1},{"dx":35,"dy":-7},{"dx":60,"dy":-25},{"dx":52,"dy":-26},{"dx":46,"dy":-24},{"dx":51,"dy":-28},{"dx":23,"dy":-22},{"dx":12,"dy":-20},{"dx":2,"dy":-26},{"dx":-13,"dy":-24},{"dx":-35,"dy":-28},{"dx":-82,"dy":-49},{"dx":-55,"dy":-23},{"dx":-49,"dy":-14},{"dx":-64,"dy":-9},{"dx":-33,"dy":1},{"dx":-33,"dy":7},{"dx":-34,"dy":22},{"dx":-20,"dy":26},{"dx":-17,"dy":35},{"dx":-9,"dy":62},{"dx":3,"dy":42},{"dx":15,"dy":35},{"dx":19,"dy":27},{"dx":37,"dy":24},{"dx":18,"dy":9},{"dx":22,"dy":7},{"dx":27,"dy":5},{"dx":20,"dy":0},{"dx":26,"dy":-4},{"dx":63,"dy":-29},{"dx":41,"dy":-25},{"dx":45,"dy":-23},{"dx":49,"dy":-40},{"dx":17,"dy":-18},{"dx":8,"dy":-12},{"dx":0,"dy":-22},{"dx":-16,"dy":-22},{"dx":-32,"dy":-25},{"dx":-88,"dy":-52},{"dx":-57,"dy":-24},{"dx":-46,"dy":-12},{"dx":-50,"dy":-6},{"dx":-20,"dy":1},{"dx":-16,"dy":6},{"dx":-22,"dy":17},{"dx":-12,"dy":21},{"dx":-10,"dy":34},{"dx":-7,"dy":51},{"dx":1,"dy":31},{"dx":10,"dy":22},{"dx":17,"dy":21},{"dx":20,"dy":11},{"dx":20,"dy":11},{"dx":23,"dy":10},{"dx":18,"dy":3},{"dx":15,"dy":1},{"dx":27,"dy":-5},{"dx":31,"dy":-15},{"dx":27,"dy":-16},{"dx":48,"dy":-30},{"dx":23,"dy":-19},{"dx":10,"dy":-16},{"dx":3,"dy":-18},{"dx":-9,"dy":-19},{"dx":-20,"dy":-16},{"dx":-67,"dy":-28},{"dx":-52,"dy":-22},{"dx":-50,"dy":-15},{"dx":-61,"dy":-7},{"dx":-26,"dy":2},{"dx":-17,"dy":6},{"dx":-20,"dy":15},{"dx":-9,"dy":17},{"dx":-8,"dy":28},{"dx":-4,"dy":67},{"dx":6,"dy":57},{"dx":15,"dy":48},{"dx":28,"dy":52},{"dx":21,"dy":23},{"dx":19,"dy":12},{"dx":16,"dy":8},{"dx":9,"dy":2},{"dx":11,"dy":0},{"dx":23,"dy":-11},{"dx":40,"dy":-24},{"dx":34,"dy":-22},{"dx":52,"dy":-28},{"dx":25,"dy":-17},{"dx":15,"dy":-14},{"dx":9,"dy":-10},{"dx":3,"dy":-8},{"dx":-2,"dy":-18},{"dx":-15,"dy":-19},{"dx":-25,"dy":-12},{"dx":-24,"dy":-8},{"dx":-12,"dy":-4},{"dx":-3,"dy":0},{"dx":-6,"dy":0},{"dx":-1,"dy":5},{"dx":0,"dy":1},{"dx":0,"dy":1},{"dx":0,"dy":0},{"dx":0,"dy":0},{"dx":0,"dy":0},{"dx":0,"dy":0},{"dx":0,"dy":0},{"dx":0,"dy":0},{"dx":0,"dy":0},{"dx":0,"dy":0},{"dx":0,"dy":0},{"dx":0,"dy":0},{"dx":0,"dy":0},{"dx":0,"dy":0},{"dx":0,"dy":0},{"dx":0,"dy":0},{"dx":0,"dy":0},{"dx":0,"dy":0},{"dx":-15,"dy":2},{"dx":-22,"dy":3},{"dx":-37,"dy":10},{"dx":-22,"dy":10},{"dx":-17,"dy":9},{"dx":-18,"dy":16},{"dx":-6,"dy":12},{"dx":-2,"dy":16},{"dx":6,"dy":20},{"dx":13,"dy":16},{"dx":24,"dy":16},{"dx":42,"dy":15},{"dx":34,"dy":2},{"dx":36,"dy":-5},{"dx":55,"dy":-20},{"dx":38,"dy":-18},{"dx":27,"dy":-21},{"dx":19,"dy":-20},{"dx":13,"dy":-19},{"dx":0,"dy":-14},{"dx":-9,"dy":-18},{"dx":-54,"dy":-40},{"dx":-51,"dy":-26},{"dx":-55,"dy":-20},{"dx":-77,"dy":-19},{"dx":-40,"dy":-4},{"dx":-26,"dy":1},{"dx":-24,"dy":7},{"dx":-11,"dy":7},{"dx":-7,"dy":10},{"dx":-3,"dy":25},{"dx":6,"dy":29},{"dx":20,"dy":35},{"dx":45,"dy":40},{"dx":30,"dy":15},{"dx":31,"dy":11},{"dx":34,"dy":7},{"dx":19,"dy":2},{"dx":19,"dy":1},{"dx":33,"dy":-8},{"dx":29,"dy":-11},{"dx":26,"dy":-17},{"dx":22,"dy":-17},{"dx":4,"dy":-5},{"dx":2,"dy":-7},{"dx":-30,"dy":-33},{"dx":-51,"dy":-26},{"dx":-52,"dy":-16},{"dx":-65,"dy":-19},{"dx":-32,"dy":-6},{"dx":-22,"dy":-1},{"dx":-21,"dy":3},{"dx":-10,"dy":4},{"dx":-8,"dy":8},{"dx":-9,"dy":23},{"dx":-3,"dy":26},{"dx":0,"dy":39},{"dx":10,"dy":48},{"dx":15,"dy":27},{"dx":16,"dy":16},{"dx":20,"dy":12},{"dx":17,"dy":5},{"dx":14,"dy":2},{"dx":23,"dy":1},{"dx":23,"dy":-5},{"dx":25,"dy":-10},{"dx":52,"dy":-27},{"dx":31,"dy":-17},{"dx":22,"dy":-13},{"dx":15,"dy":-15},{"dx":6,"dy":-11},{"dx":1,"dy":-11},{"dx":-20,"dy":-25},{"dx":-31,"dy":-28},{"dx":-41,"dy":-20},{"dx":-54,"dy":-17},{"dx":-38,"dy":-6},{"dx":-29,"dy":-1},{"dx":-32,"dy":3},{"dx":-16,"dy":6},{"dx":-14,"dy":9},{"dx":-12,"dy":13},{"dx":-6,"dy":10},{"dx":-3,"dy":14},{"dx":2,"dy":24},{"dx":9,"dy":14},{"dx":14,"dy":15},{"dx":42,"dy":17},{"dx":29,"dy":7},{"dx":36,"dy":5},{"dx":38,"dy":2},{"dx":31,"dy":-2},{"dx":30,"dy":-6},{"dx":33,"dy":-10},{"dx":51,"dy":-15},{"dx":21,"dy":-10},{"dx":12,"dy":-9},{"dx":11,"dy":-14},{"dx":1,"dy":-6},{"dx":-4,"dy":-10},{"dx":-48,"dy":-38},{"dx":-55,"dy":-29},{"dx":-46,"dy":-18},{"dx":-76,"dy":-18},{"dx":-43,"dy":-3},{"dx":-30,"dy":1},{"dx":-45,"dy":11},{"dx":-28,"dy":12},{"dx":-26,"dy":22},{"dx":-29,"dy":36},{"dx":-11,"dy":27},{"dx":-4,"dy":17},{"dx":1,"dy":19},{"dx":5,"dy":11},{"dx":12,"dy":12},{"dx":23,"dy":15}],"trial_type":"plugin-moving-dots-2","trial_index":4,"plugin_version":"0.0.1","time_elapsed":153969},{"task":"fixation","rt":3356,"stimulus":"<div style=\"font-size:60px;\">+</div>","response":" ","trial_type":"html-keyboard-response","trial_index":5,"plugin_version":"2.1.0","time_elapsed":157326},{"task":"movingdots","control_change":0,"mouse_data":[{"dx":0,"dy":0},{"dx":0,"dy":0},{"dx":0,"dy":0},{"dx":0,"dy":0},{"dx":0,"dy":0},{"dx":0,"dy":0},{"dx":0,"dy":0},{"dx":0,"dy":0},{"dx":0,"dy":0},{"dx":0,"dy":0},{"dx":0,"dy":0},{"dx":0,"dy":0},{"dx":0,"dy":0},{"dx":0,"dy":0},{"dx":0,"dy":0},{"dx":0,"dy":0},{"dx":0,"dy":0},{"dx":0,"dy":0},{"dx":0,"dy":0},{"dx":0,"dy":0},{"dx":0,"dy":0},{"dx":0,"dy":0},{"dx":0,"dy":0},{"dx":0,"dy":0},{"dx":0,"dy":0},{"dx":0,"dy":0},{"dx":0,"dy":0},{"dx":0,"dy":0},{"dx":0,"dy":0},{"dx":0,"dy":0},{"dx":0,"dy":0},{"dx":0,"dy":0},{"dx":0,"dy":0},{"dx":0,"dy":0},{"dx":0,"dy":0},{"dx":0,"dy":0},{"dx":0,"dy":0},{"dx":0,"dy":0},{"dx":-2,"dy":0},{"dx":-19,"dy":0},{"dx":-15,"dy":-1},{"dx":-15,"dy":-1},{"dx":-17,"dy":-2},{"dx":-9,"dy":-2},{"dx":-6,"dy":-1},{"dx":-14,"dy":-6},{"dx":-6,"dy":-3},{"dx":-3,"dy":-5},{"dx":-4,"dy":-6},{"dx":-3,"dy":-7},{"dx":-2,"dy":-8},{"dx":-2,"dy":-10},{"dx":0,"dy":-1},{"dx":0,"dy":-6},{"dx":11,"dy":-10},{"dx":9,"dy":-5},{"dx":10,"dy":-4},{"dx":21,"dy":-4},{"dx":17,"dy":-1},{"dx":14,"dy":2},{"dx":26,"dy":6},{"dx":12,"dy":5},{"dx":10,"dy":9},{"dx":12,"dy":18},{"dx":5,"dy":14},{"dx":2,"dy":18},{"dx":-2,"dy":38},{"dx":-5,"dy":21},{"dx":-5,"dy":15},{"dx":-5,"dy":12},{"dx":-10,"dy":10},{"dx":-11,"dy":4},{"dx":-13,"dy":3},{"dx":-26,"dy":1},{"dx":-21,"dy":-1},{"dx":-19,"dy":-5},{"dx":-26,"dy":-11},{"dx":-15,"dy":-9},{"dx":-13,"dy":-10},{"dx":-14,"dy":-21},{"dx":-6,"dy":-16},{"dx":-2,"dy":-10},{"dx":5,"dy":-22},{"dx":13,"dy":-19},{"dx":21,"dy":-17},{"dx":44,"dy":-22},{"dx":32,"dy":-9},{"dx":31,"dy":-8},{"dx":43,"dy":-5},{"dx":27,"dy":0},{"dx":31,"dy":3},{"dx":46,"dy":10},{"dx":28,"dy":8},{"dx":14,"dy":6},{"dx":21,"dy":10},{"dx":12,"dy":6},{"dx":9,"dy":8},{"dx":7,"dy":9},{"dx":5,"dy":7},{"dx":4,"dy":16},{"dx":-2,"dy":28},{"dx":-16,"dy":36},{"dx":-33,"dy":37},{"dx":-49,"dy":42},{"dx":-25,"dy":19},{"dx":-24,"dy":10},{"dx":-41,"dy":2},{"dx":-36,"dy":-4},{"dx":-42,"dy":-9},{"dx":-62,"dy":-20},{"dx":-42,"dy":-18},{"dx":-41,"dy":-28},{"dx":-45,"dy":-38},{"dx":-19,"dy":-22},{"dx":-12,"dy":-22},{"dx":-6,"dy":-21},{"dx":0,"dy":-15},{"dx":12,"dy":-22},{"dx":33,"dy":-29},{"dx":27,"dy":-16},{"dx":33,"dy":-13},{"dx":43,"dy":-14},{"dx":27,"dy":-4},{"dx":23,"dy":0},{"dx":32,"dy":3},{"dx":22,"dy":5},{"dx":24,"dy":9},{"dx":28,"dy":13},{"dx":14,"dy":12},{"dx":12,"dy":16},{"dx":7,"dy":31},{"dx":1,"dy":32},{"dx":-8,"dy":33},{"dx":-24,"dy":55},{"dx":-23,"dy":28},{"dx":-33,"dy":25},{"dx":-51,"dy":23},{"dx":-34,"dy":2},{"dx":-43,"dy":-7},{"dx":-64,"dy":-21},{"dx":-29,"dy":-15},{"dx":-29,"dy":-21},{"dx":-25,"dy":-23},{"dx":-11,"dy":-18},{"dx":-9,"dy":-22},{"dx":-4,"dy":-22},{"dx":0,"dy":-13},{"dx":1,"dy":-11},{"dx":8,"dy":-17},{"dx":11,"dy":-9},{"dx":13,"dy":-9},{"dx":26,"dy":-11},{"dx":19,"dy":-5},{"dx":17,"dy":-2},{"dx":29,"dy":0},{"dx":14,"dy":3},{"dx":0,"dy":0},{"dx":12,"dy":0},{"dx":0,"dy":0},{"dx":0,"dy":0},{"dx":0,"dy":0},{"dx":0,"dy":0},{"dx":0,"dy":0},{"dx":0,"dy":0},{"dx":0,"dy":0},{"dx":0,"dy":0},{"dx":0,"dy":0},{"dx":0,"dy":0},{"dx":0,"dy":0},{"dx":0,"dy":0},{"dx":-31,"dy":-12},{"dx":-43,"dy":-26},{"dx":-68,"dy":-33},{"dx":-44,"dy":-20},{"dx":-38,"dy":-20},{"dx":-57,"dy":-31},{"dx":-24,"dy":-12},{"dx":-14,"dy":-8},{"dx":-5,"dy":-3},{"dx":-7,"dy":-9},{"dx":0,"dy":-1},{"dx":0,"dy":-6},{"dx":25,"dy":-9},{"dx":36,"dy":-2},{"dx":53,"dy":5},{"dx":100,"dy":24},{"dx":74,"dy":22},{"dx":75,"dy":22},{"dx":108,"dy":37},{"dx":68,"dy":20},{"dx":56,"dy":17},{"dx":54,"dy":17},{"dx":28,"dy":10},{"dx":13,"dy":5},{"dx":19,"dy":8},{"dx":11,"dy":3},{"dx":7,"dy":2},{"dx":2,"dy":0},{"dx":3,"dy":1},{"dx":0,"dy":0},{"dx":1,"dy":1},{"dx":0,"dy":1},{"dx":1,"dy":0},{"dx":1,"dy":1},{"dx":0,"dy":0},{"dx":-8,"dy":1},{"dx":-50,"dy":-24},{"dx":-64,"dy":-28},{"dx":-78,"dy":-33},{"dx":-129,"dy":-46},{"dx":-71,"dy":-18},{"dx":-64,"dy":-13},{"dx":-82,"dy":-11},{"dx":-42,"dy":-3},{"dx":-28,"dy":-1},{"dx":-24,"dy":1},{"dx":-11,"dy":2},{"dx":-5,"dy":2},{"dx":-10,"dy":7},{"dx":0,"dy":1},{"dx":-3,"dy":4},{"dx":1,"dy":7},{"dx":3,"dy":5},{"dx":9,"dy":11},{"dx":20,"dy":17},{"dx":17,"dy":17},{"dx":24,"dy":22},{"dx":45,"dy":37},{"dx":35,"dy":31},{"dx":28,"dy":25},{"dx":51,"dy":43},{"dx":21,"dy":20},{"dx":17,"dy":12},{"dx":36,"dy":12},{"dx":19,"dy":4},{"dx":24,"dy":3},{"dx":32,"dy":3},{"dx":20,"dy":1},{"dx":16,"dy":0},{"dx":26,"dy":1},{"dx":15,"dy":-2},{"dx":21,"dy":-3},{"dx":35,"dy":-7},{"dx":28,"dy":-7},{"dx":19,"dy":-6},{"dx":21,"dy":-7},{"dx":11,"dy":-3},{"dx":5,"dy":-2},{"dx":9,"dy":-7},{"dx":3,"dy":-2},{"dx":1,"dy":-1},{"dx":2,"dy":-3},{"dx":0,"dy":-2},{"dx":-3,"dy":-6},{"dx":-10,"dy":-8},{"dx":-33,"dy":-19},{"dx":-38,"dy":-17},{"dx":-46,"dy":-18},{"dx":-74,"dy":-16},{"dx":-47,"dy":-8},{"dx":-39,"dy":-3},{"dx":-64,"dy":-2},{"dx":-46,"dy":2},{"dx":-48,"dy":7},{"dx":-55,"dy":12},{"dx":-32,"dy":12},{"dx":-33,"dy":13},{"dx":-32,"dy":15},{"dx":-13,"dy":7},{"dx":-13,"dy":12},{"dx":-8,"dy":9},{"dx":-6,"dy":11},{"dx":-4,"dy":14},{"dx":-1,"dy":7},{"dx":0,"dy":5},{"dx":0,"dy":5},{"dx":2,"dy":6},{"dx":4,"dy":4},{"dx":8,"dy":7},{"dx":13,"dy":8},{"dx":19,"dy":5},{"dx":26,"dy":7},{"dx":54,"dy":10},{"dx":50,"dy":4},{"dx":62,"dy":0},{"dx":99,"dy":-11},{"dx":58,"dy":-11},{"dx":53,"dy":-15},{"dx":69,"dy":-25},{"dx":29,"dy":-11},{"dx":24,"dy":-10},{"dx":19,"dy":-10},{"dx":6,"dy":-8},{"dx":7,"dy":-8},{"dx":9,"dy":-11},{"dx":4,"dy":-5},{"dx":4,"dy":-4},{"dx":5,"dy":-6},{"dx":3,"dy":-4},{"dx":4,"dy":-6},{"dx":2,"dy":-7},{"dx":-1,"dy":-10},{"dx":-10,"dy":-12},{"dx":-34,"dy":-26},{"dx":-36,"dy":-25},{"dx":-46,"dy":-23},{"dx":-88,"dy":-33},{"dx":-74,"dy":-25},{"dx":-74,"dy":-21},{"dx":-119,"dy":-25},{"dx":-68,"dy":-9},{"dx":-57,"dy":-7},{"dx":-60,"dy":-5},{"dx":-31,"dy":-2},{"dx":-16,"dy":-1},{"dx":-11,"dy":-1},{"dx":-1,"dy":-1},{"dx":-1,"dy":0},{"dx":-1,"dy":0},{"dx":0,"dy":0},{"dx":5,"dy":-2},{"dx":17,"dy":0},{"dx":13,"dy":1},{"dx":24,"dy":3},{"dx":37,"dy":6},{"dx":33,"dy":3},{"dx":37,"dy":6},{"dx":73,"dy":12},{"dx":51,"dy":9},{"dx":48,"dy":9},{"dx":71,"dy":16},{"dx":42,"dy":11},{"dx":41,"dy":8},{"dx":41,"dy":9},{"dx":19,"dy":3},{"dx":14,"dy":3},{"dx":20,"dy":5},{"dx":12,"dy":6},{"dx":10,"dy":5},{"dx":4,"dy":3},{"dx":2,"dy":1},{"dx":2,"dy":4},{"dx":1,"dy":6},{"dx":-1,"dy":6},{"dx":-3,"dy":6},{"dx":-11,"dy":14},{"dx":-14,"dy":13},{"dx":-20,"dy":16},{"dx":-48,"dy":33},{"dx":-44,"dy":33},{"dx":-41,"dy":27},{"dx":-61,"dy":34},{"dx":-33,"dy":14},{"dx":-30,"dy":11},{"dx":-48,"dy":10},{"dx":-32,"dy":4},{"dx":-37,"dy":4},{"dx":-40,"dy":3},{"dx":-20,"dy":1},{"dx":-11,"dy":-1},{"dx":-7,"dy":-1},{"dx":-1,"dy":0},{"dx":-1,"dy":0},{"dx":0,"dy":0},{"dx":20,"dy":1},{"dx":29,"dy":3},{"dx":54,"dy":6},{"dx":99,"dy":13},{"dx":70,"dy":11},{"dx":73,"dy":10},{"dx":105,"dy":4},{"dx":63,"dy":-3},{"dx":75,"dy":-9},{"dx":26,"dy":-3},{"dx":14,"dy":0},{"dx":6,"dy":0},{"dx":4,"dy":0},{"dx":0,"dy":0},{"dx":0,"dy":0},{"dx":0,"dy":0},{"dx":0,"dy":0},{"dx":0,"dy":0},{"dx":0,"dy":0},{"dx":0,"dy":0},{"dx":0,"dy":0},{"dx":0,"dy":0},{"dx":0,"dy":0},{"dx":0,"dy":0},{"dx":0,"dy":0},{"dx":0,"dy":0},{"dx":0,"dy":0},{"dx":0,"dy":0},{"dx":0,"dy":0},{"dx":0,"dy":0},{"dx":2,"dy":-7},{"dx":6,"dy":-17},{"dx":5,"dy":-17},{"dx":10,"dy":-27},{"dx":9,"dy":-28},{"dx":9,"dy":-20},{"dx":13,"dy":-26},{"dx":6,"dy":-17},{"dx":4,"dy":-14},{"dx":0,"dy":-18},{"dx":-4,"dy":-13},{"dx":-8,"dy":-15},{"dx":-19,"dy":-15},{"dx":-27,"dy":-12},{"dx":-28,"dy":-10},{"dx":-56,"dy":-13},{"dx":-41,"dy":-5},{"dx":-38,"dy":-3},{"dx":-53,"dy":0},{"dx":-36,"dy":4},{"dx":-31,"dy":4},{"dx":-37,"dy":11},{"dx":-14,"dy":5},{"dx":-11,"dy":7},{"dx":-14,"dy":9},{"dx":-5,"dy":4},{"dx":-4,"dy":7},{"dx":-3,"dy":10},{"dx":1,"dy":5},{"dx":4,"dy":5},{"dx":10,"dy":7},{"dx":16,"dy":6},{"dx":19,"dy":5},{"dx":52,"dy":9},{"dx":50,"dy":5},{"dx":60,"dy":4},{"dx":101,"dy":3},{"dx":59,"dy":1},{"dx":58,"dy":0},{"dx":76,"dy":-1},{"dx":37,"dy":-1},{"dx":31,"dy":0},{"dx":37,"dy":0},{"dx":11,"dy":0},{"dx":4,"dy":0},{"dx":1,"dy":0},{"dx":0,"dy":0},{"dx":0,"dy":0},{"dx":-31,"dy":0},{"dx":-36,"dy":1},{"dx":-46,"dy":5},{"dx":-83,"dy":16},{"dx":-60,"dy":21},{"dx":-60,"dy":27},{"dx":-86,"dy":46},{"dx":-55,"dy":32},{"dx":-42,"dy":24},{"dx":-45,"dy":25},{"dx":-21,"dy":7}],"trial_type":"plugin-moving-dots-2","trial_index":6,"plugin_version":"0.0.1","time_elapsed":164835},{"task":"fixation","rt":4809,"stimulus":"<div style=\"font-size:60px;\">+</div>","response":" ","trial_type":"html-keyboard-response","trial_index":7,"plugin_version":"2.1.0","time_elapsed":169646},{"task":"movingdots","control_change":0,"mouse_data":[{"dx":0,"dy":0},{"dx":0,"dy":0},{"dx":0,"dy":0},{"dx":0,"dy":0},{"dx":0,"dy":0},{"dx":0,"dy":0},{"dx":0,"dy":0},{"dx":0,"dy":0},{"dx":0,"dy":0},{"dx":0,"dy":0},{"dx":0,"dy":0},{"dx":0,"dy":0},{"dx":0,"dy":0},{"dx":0,"dy":0},{"dx":0,"dy":0},{"dx":0,"dy":0},{"dx":0,"dy":0},{"dx":0,"dy":0},{"dx":0,"dy":0},{"dx":0,"dy":0},{"dx":0,"dy":0},{"dx":0,"dy":0},{"dx":0,"dy":0},{"dx":0,"dy":0},{"dx":0,"dy":0},{"dx":0,"dy":0},{"dx":0,"dy":0},{"dx":0,"dy":0},{"dx":0,"dy":0},{"dx":0,"dy":0},{"dx":0,"dy":0},{"dx":0,"dy":0},{"dx":0,"dy":0},{"dx":0,"dy":0},{"dx":0,"dy":0},{"dx":-2,"dy":0},{"dx":-15,"dy":0},{"dx":-27,"dy":1},{"dx":-24,"dy":3},{"dx":-23,"dy":4},{"dx":-34,"dy":4},{"dx":-22,"dy":4},{"dx":-18,"dy":4},{"dx":-27,"dy":5},{"dx":-15,"dy":2},{"dx":-18,"dy":3},{"dx":-21,"dy":3},{"dx":-17,"dy":2},{"dx":-16,"dy":3},{"dx":-20,"dy":5},{"dx":-14,"dy":4},{"dx":-12,"dy":4},{"dx":-17,"dy":9},{"dx":-11,"dy":7},{"dx":-9,"dy":6},{"dx":-9,"dy":7},{"dx":-3,"dy":2},{"dx":-1,"dy":1},{"dx":-1,"dy":1},{"dx":0,"dy":0},{"dx":0,"dy":1},{"dx":25,"dy":9},{"dx":45,"dy":11},{"dx":49,"dy":15},{"dx":72,"dy":22},{"dx":44,"dy":13},{"dx":49,"dy":11},{"dx":72,"dy":11},{"dx":45,"dy":5},{"dx":53,"dy":3},{"dx":69,"dy":2},{"dx":43,"dy":-2},{"dx":36,"dy":-5},{"dx":51,"dy":-9},{"dx":21,"dy":-5},{"dx":5,"dy":-2},{"dx":6,"dy":-1},{"dx":1,"dy":0},{"dx":0,"dy":0},{"dx":-3,"dy":-5},{"dx":-15,"dy":-4},{"dx":-26,"dy":-6},{"dx":-64,"dy":-11},{"dx":-57,"dy":-7},{"dx":-67,"dy":-3},{"dx":-101,"dy":1},{"dx":-67,"dy":5},{"dx":-70,"dy":9},{"dx":-94,"dy":14},{"dx":-53,"dy":7},{"dx":-46,"dy":7},{"dx":-51,"dy":4},{"dx":-15,"dy":0},{"dx":-13,"dy":0},{"dx":-16,"dy":-2},{"dx":-7,"dy":-3},{"dx":-8,"dy":-6},{"dx":-10,"dy":-18},{"dx":-2,"dy":-17},{"dx":-1,"dy":-27},{"dx":15,"dy":-53},{"dx":24,"dy":-48},{"dx":21,"dy":-34},{"dx":50,"dy":-60},{"dx":36,"dy":-27},{"dx":45,"dy":-24},{"dx":75,"dy":-31},{"dx":51,"dy":-11},{"dx":37,"dy":-2},{"dx":54,"dy":0},{"dx":30,"dy":5},{"dx":34,"dy":9},{"dx":54,"dy":17},{"dx":31,"dy":13},{"dx":37,"dy":16},{"dx":46,"dy":27},{"dx":36,"dy":23},{"dx":39,"dy":24},{"dx":62,"dy":42},{"dx":29,"dy":25},{"dx":19,"dy":20},{"dx":13,"dy":21},{"dx":8,"dy":26},{"dx":2,"dy":21},{"dx":0,"dy":19},{"dx":-15,"dy":34},{"dx":-23,"dy":29},{"dx":-19,"dy":20},{"dx":-45,"dy":32},{"dx":-35,"dy":20},{"dx":-38,"dy":13},{"dx":-70,"dy":12},{"dx":-50,"dy":4},{"dx":-43,"dy":1},{"dx":-67,"dy":-6},{"dx":-56,"dy":-12},{"dx":-60,"dy":-18},{"dx":-90,"dy":-30},{"dx":-44,"dy":-20},{"dx":-38,"dy":-23},{"dx":-43,"dy":-32},{"dx":-22,"dy":-22},{"dx":-21,"dy":-29},{"dx":-20,"dy":-46},{"dx":-5,"dy":-32},{"dx":0,"dy":-26},{"dx":13,"dy":-48},{"dx":11,"dy":-24},{"dx":16,"dy":-28},{"dx":20,"dy":-29},{"dx":16,"dy":-17},{"dx":16,"dy":-14},{"dx":19,"dy":-14},{"dx":17,"dy":-7},{"dx":14,"dy":-4},{"dx":20,"dy":-2},{"dx":15,"dy":0},{"dx":18,"dy":2},{"dx":39,"dy":10},{"dx":34,"dy":13},{"dx":44,"dy":13},{"dx":78,"dy":21},{"dx":60,"dy":19},{"dx":57,"dy":19},{"dx":74,"dy":22},{"dx":50,"dy":14},{"dx":33,"dy":11},{"dx":37,"dy":11},{"dx":12,"dy":4},{"dx":5,"dy":1},{"dx":6,"dy":1},{"dx":5,"dy":1},{"dx":4,"dy":0},{"dx":1,"dy":0},{"dx":1,"dy":-2},{"dx":1,"dy":-6},{"dx":-11,"dy":-17},{"dx":-15,"dy":-13},{"dx":-35,"dy":-21},{"dx":-56,"dy":-31},{"dx":-46,"dy":-24},{"dx":-46,"dy":-16},{"dx":-73,"dy":-18},{"dx":-50,"dy":-9},{"dx":-49,"dy":-5},{"dx":-64,"dy":0},{"dx":-40,"dy":5},{"dx":-39,"dy":10},{"dx":-53,"dy":21},{"dx":-33,"dy":19},{"dx":-29,"dy":19},{"dx":-36,"dy":38},{"dx":-20,"dy":26},{"dx":-17,"dy":26},{"dx":-20,"dy":42},{"dx":-8,"dy":25},{"dx":-5,"dy":23},{"dx":-1,"dy":28},{"dx":2,"dy":22},{"dx":6,"dy":17},{"dx":20,"dy":33},{"dx":19,"dy":21},{"dx":16,"dy":15},{"dx":42,"dy":28},{"dx":35,"dy":15},{"dx":34,"dy":15},{"dx":36,"dy":13},{"dx":52,"dy":13},{"dx":39,"dy":7},{"dx":37,"dy":2},{"dx":64,"dy":-2},{"dx":44,"dy":-5},{"dx":45,"dy":-12},{"dx":52,"dy":-20},{"dx":42,"dy":-16},{"dx":28,"dy":-15},{"dx":45,"dy":-39},{"dx":19,"dy":-20},{"dx":14,"dy":-24},{"dx":18,"dy":-40},{"dx":5,"dy":-19},{"dx":1,"dy":-27},{"dx":-10,"dy":-33},{"dx":-13,"dy":-28},{"dx":-16,"dy":-20},{"dx":-34,"dy":-34},{"dx":-29,"dy":-25},{"dx":-36,"dy":-22},{"dx":-54,"dy":-31},{"dx":-36,"dy":-20},{"dx":-41,"dy":-18},{"dx":-60,"dy":-19},{"dx":-36,"dy":-10},{"dx":-36,"dy":-8},{"dx":-41,"dy":-8},{"dx":-25,"dy":-4},{"dx":-23,"dy":-4},{"dx":-49,"dy":-3},{"dx":-36,"dy":-1},{"dx":-33,"dy":-1},{"dx":-38,"dy":0},{"dx":-18,"dy":1},{"dx":-14,"dy":2},{"dx":-12,"dy":3},{"dx":0,"dy":0},{"dx":-1,"dy":0},{"dx":-1,"dy":1},{"dx":14,"dy":2},{"dx":33,"dy":3},{"dx":72,"dy":3},{"dx":55,"dy":2},{"dx":51,"dy":5},{"dx":73,"dy":6},{"dx":51,"dy":7},{"dx":47,"dy":8},{"dx":48,"dy":9},{"dx":73,"dy":19},{"dx":46,"dy":14},{"dx":32,"dy":15},{"dx":57,"dy":30},{"dx":28,"dy":18},{"dx":34,"dy":26},{"dx":16,"dy":17},{"dx":10,"dy":16},{"dx":7,"dy":13},{"dx":5,"dy":21},{"dx":0,"dy":17},{"dx":-4,"dy":18},{"dx":-13,"dy":37},{"dx":-18,"dy":23},{"dx":-26,"dy":27},{"dx":-56,"dy":48},{"dx":-41,"dy":31},{"dx":-43,"dy":30},{"dx":-49,"dy":26},{"dx":-30,"dy":7},{"dx":-38,"dy":2},{"dx":-57,"dy":-9},{"dx":-41,"dy":-12},{"dx":-46,"dy":-15},{"dx":-75,"dy":-22},{"dx":-51,"dy":-18},{"dx":-53,"dy":-23},{"dx":-66,"dy":-33},{"dx":-35,"dy":-19},{"dx":-28,"dy":-24},{"dx":-22,"dy":-28},{"dx":-6,"dy":-17},{"dx":-2,"dy":-21},{"dx":2,"dy":-24},{"dx":2,"dy":-6},{"dx":2,"dy":-8},{"dx":2,"dy":-5},{"dx":1,"dy":-1},{"dx":0,"dy":0},{"dx":6,"dy":3},{"dx":8,"dy":12},{"dx":4,"dy":17},{"dx":15,"dy":36},{"dx":18,"dy":34},{"dx":19,"dy":28},{"dx":36,"dy":42},{"dx":34,"dy":31},{"dx":38,"dy":28},{"dx":71,"dy":45},{"dx":49,"dy":25},{"dx":53,"dy":21},{"dx":75,"dy":22},{"dx":44,"dy":4},{"dx":43,"dy":-2},{"dx":57,"dy":-17},{"dx":36,"dy":-23},{"dx":41,"dy":-33},{"dx":43,"dy":-54},{"dx":20,"dy":-35},{"dx":19,"dy":-40},{"dx":13,"dy":-50},{"dx":0,"dy":-33},{"dx":-6,"dy":-28},{"dx":-22,"dy":-49},{"dx":-16,"dy":-23},{"dx":-30,"dy":-28},{"dx":-46,"dy":-40},{"dx":-31,"dy":-22},{"dx":-30,"dy":-18},{"dx":-56,"dy":-28},{"dx":-36,"dy":-11},{"dx":-34,"dy":-8},{"dx":-53,"dy":-8},{"dx":-36,"dy":-5},{"dx":-28,"dy":-2},{"dx":-48,"dy":0},{"dx":-35,"dy":3},{"dx":-35,"dy":5},{"dx":-31,"dy":8},{"dx":-45,"dy":16},{"dx":-28,"dy":14},{"dx":-24,"dy":16},{"dx":-34,"dy":34},{"dx":-20,"dy":24},{"dx":-15,"dy":23},{"dx":-19,"dy":39},{"dx":-7,"dy":22},{"dx":-2,"dy":21},{"dx":1,"dy":24},{"dx":7,"dy":22},{"dx":16,"dy":24},{"dx":32,"dy":30},{"dx":32,"dy":19},{"dx":33,"dy":18},{"dx":58,"dy":21},{"dx":48,"dy":12},{"dx":45,"dy":8},{"dx":75,"dy":10},{"dx":47,"dy":5},{"dx":47,"dy":3},{"dx":58,"dy":2},{"dx":39,"dy":-1},{"dx":43,"dy":-5},{"dx":62,"dy":-15},{"dx":41,"dy":-21},{"dx":42,"dy":-22},{"dx":50,"dy":-27},{"dx":35,"dy":-26},{"dx":27,"dy":-21},{"dx":32,"dy":-28},{"dx":14,"dy":-15},{"dx":9,"dy":-15},{"dx":6,"dy":-19},{"dx":0,"dy":-13},{"dx":-4,"dy":-17},{"dx":-18,"dy":-22},{"dx":-20,"dy":-19},{"dx":-35,"dy":-26},{"dx":-63,"dy":-34},{"dx":-49,"dy":-22},{"dx":-46,"dy":-16},{"dx":-72,"dy":-21},{"dx":-55,"dy":-9},{"dx":-53,"dy":-5},{"dx":-82,"dy":-1},{"dx":-54,"dy":3},{"dx":-55,"dy":8},{"dx":-80,"dy":20},{"dx":-49,"dy":18},{"dx":-39,"dy":16},{"dx":-41,"dy":24},{"dx":-14,"dy":9},{"dx":-8,"dy":7},{"dx":-5,"dy":4},{"dx":-3,"dy":4},{"dx":0,"dy":0},{"dx":0,"dy":2},{"dx":9,"dy":4},{"dx":12,"dy":2},{"dx":23,"dy":3},{"dx":15,"dy":3},{"dx":13,"dy":3},{"dx":26,"dy":8},{"dx":23,"dy":6},{"dx":38,"dy":9},{"dx":63,"dy":17},{"dx":40,"dy":12},{"dx":42,"dy":12},{"dx":63,"dy":21},{"dx":47,"dy":14},{"dx":48,"dy":12},{"dx":60,"dy":20},{"dx":30,"dy":10},{"dx":31,"dy":15},{"dx":36,"dy":19},{"dx":14,"dy":9},{"dx":15,"dy":10},{"dx":13,"dy":15},{"dx":5,"dy":11},{"dx":0,"dy":12},{"dx":-15,"dy":21},{"dx":-25,"dy":18},{"dx":-39,"dy":22},{"dx":-70,"dy":28},{"dx":-50,"dy":17},{"dx":-54,"dy":14},{"dx":-76,"dy":13},{"dx":-45,"dy":5},{"dx":-39,"dy":5},{"dx":-52,"dy":2},{"dx":-31,"dy":0},{"dx":-23,"dy":-3},{"dx":-34,"dy":-12},{"dx":-15,"dy":-6},{"dx":-12,"dy":-11},{"dx":-15,"dy":-21},{"dx":-7,"dy":-14},{"dx":-4,"dy":-14},{"dx":0,"dy":-20},{"dx":8,"dy":-38},{"dx":13,"dy":-35},{"dx":30,"dy":-41},{"dx":58,"dy":-62},{"dx":47,"dy":-37},{"dx":53,"dy":-34},{"dx":87,"dy":-43},{"dx":62,"dy":-22},{"dx":58,"dy":-20},{"dx":72,"dy":-23},{"dx":40,"dy":-8},{"dx":28,"dy":-6},{"dx":45,"dy":-5},{"dx":21,"dy":0},{"dx":22,"dy":0},{"dx":16,"dy":0},{"dx":7,"dy":0}],"trial_type":"plugin-moving-dots-2","trial_index":8,"plugin_version":"0.0.1","time_elapsed":177151},{"task":"fixation","rt":5517,"stimulus":"<div style=\"font-size:60px;\">+</div>","response":" ","trial_type":"html-keyboard-response","trial_index":9,"plugin_version":"2.1.0","time_elapsed":182670},{"task":"movingdots","control_change":0,"mouse_data":[{"dx":0,"dy":0},{"dx":0,"dy":0},{"dx":0,"dy":0},{"dx":0,"dy":0},{"dx":0,"dy":0},{"dx":0,"dy":0},{"dx":0,"dy":0},{"dx":0,"dy":0},{"dx":0,"dy":0},{"dx":0,"dy":0},{"dx":0,"dy":0},{"dx":0,"dy":0},{"dx":0,"dy":0},{"dx":0,"dy":0},{"dx":0,"dy":0},{"dx":0,"dy":0},{"dx":0,"dy":0},{"dx":0,"dy":0},{"dx":0,"dy":0},{"dx":0,"dy":0},{"dx":0,"dy":0},{"dx":0,"dy":0},{"dx":0,"dy":0},{"dx":0,"dy":0},{"dx":0,"dy":0},{"dx":0,"dy":0},{"dx":0,"dy":0},{"dx":0,"dy":0},{"dx":0,"dy":0},{"dx":0,"dy":0},{"dx":0,"dy":0},{"dx":0,"dy":0},{"dx":-3,"dy":-1},{"dx":-19,"dy":-9},{"dx":-12,"dy":-5},{"dx":-12,"dy":-7},{"dx":-19,"dy":-10},{"dx":-12,"dy":-6},{"dx":-13,"dy":-6},{"dx":-27,"dy":-8},{"dx":-24,"dy":-4},{"dx":-26,"dy":-3},{"dx":-45,"dy":-5},{"dx":-25,"dy":-1},{"dx":-28,"dy":0},{"dx":-28,"dy":5},{"dx":-19,"dy":4},{"dx":-20,"dy":6},{"dx":-31,"dy":12},{"dx":-20,"dy":7},{"dx":-15,"dy":5},{"dx":-20,"dy":9},{"dx":-14,"dy":5},{"dx":-10,"dy":6},{"dx":-8,"dy":7},{"dx":-6,"dy":6},{"dx":-3,"dy":7},{"dx":-4,"dy":11},{"dx":0,"dy":0},{"dx":-1,"dy":7},{"dx":0,"dy":4},{"dx":0,"dy":0},{"dx":0,"dy":0},{"dx":0,"dy":0},{"dx":0,"dy":0},{"dx":0,"dy":0},{"dx":0,"dy":0},{"dx":0,"dy":0},{"dx":0,"dy":0},{"dx":0,"dy":0},{"dx":0,"dy":0},{"dx":0,"dy":0},{"dx":0,"dy":0},{"dx":0,"dy":0},{"dx":0,"dy":0},{"dx":-31,"dy":9},{"dx":-60,"dy":30},{"dx":-37,"dy":23},{"dx":-47,"dy":39},{"dx":-23,"dy":27},{"dx":-15,"dy":23},{"dx":-12,"dy":30},{"dx":-2,"dy":16},{"dx":5,"dy":16},{"dx":21,"dy":19},{"dx":59,"dy":26},{"dx":63,"dy":12},{"dx":74,"dy":5},{"dx":115,"dy":-3},{"dx":72,"dy":-6},{"dx":76,"dy":-11},{"dx":103,"dy":-19},{"dx":53,"dy":-11},{"dx":52,"dy":-16},{"dx":46,"dy":-24},{"dx":15,"dy":-10},{"dx":8,"dy":-9},{"dx":10,"dy":-16},{"dx":5,"dy":-14},{"dx":5,"dy":-12},{"dx":5,"dy":-18},{"dx":4,"dy":-14},{"dx":2,"dy":-14},{"dx":2,"dy":-19},{"dx":0,"dy":-15},{"dx":-4,"dy":-17},{"dx":-11,"dy":-26},{"dx":-29,"dy":-26},{"dx":-51,"dy":-32},{"dx":-106,"dy":-37},{"dx":-87,"dy":-21},{"dx":-96,"dy":-16},{"dx":-146,"dy":-17},{"dx":-87,"dy":-5},{"dx":-68,"dy":0},{"dx":-67,"dy":0},{"dx":-21,"dy":0},{"dx":-13,"dy":0},{"dx":-5,"dy":-1},{"dx":-1,"dy":-1},{"dx":0,"dy":-1},{"dx":16,"dy":-10},{"dx":27,"dy":-10},{"dx":31,"dy":-11},{"dx":65,"dy":-19},{"dx":49,"dy":-12},{"dx":59,"dy":-14},{"dx":92,"dy":-11},{"dx":70,"dy":-3},{"dx":64,"dy":2},{"dx":75,"dy":7},{"dx":38,"dy":8},{"dx":25,"dy":9},{"dx":24,"dy":9},{"dx":13,"dy":8},{"dx":12,"dy":8},{"dx":21,"dy":17},{"dx":0,"dy":0},{"dx":13,"dy":7},{"dx":0,"dy":0},{"dx":0,"dy":0},{"dx":0,"dy":0},{"dx":0,"dy":0},{"dx":0,"dy":0},{"dx":0,"dy":0},{"dx":0,"dy":0},{"dx":0,"dy":0},{"dx":0,"dy":0},{"dx":0,"dy":0},{"dx":0,"dy":0},{"dx":0,"dy":0},{"dx":0,"dy":0},{"dx":0,"dy":0},{"dx":0,"dy":0},{"dx":0,"dy":0},{"dx":0,"dy":0},{"dx":0,"dy":0},{"dx":0,"dy":0},{"dx":0,"dy":0},{"dx":0,"dy":0},{"dx":0,"dy":0},{"dx":0,"dy":0},{"dx":0,"dy":0},{"dx":0,"dy":0},{"dx":0,"dy":0},{"dx":0,"dy":0},{"dx":0,"dy":0},{"dx":0,"dy":0},{"dx":-16,"dy":12},{"dx":-37,"dy":24},{"dx":-63,"dy":24},{"dx":-48,"dy":9},{"dx":-43,"dy":1},{"dx":-60,"dy":-9},{"dx":-34,"dy":-11},{"dx":-45,"dy":-26},{"dx":-30,"dy":-29},{"dx":-25,"dy":-32},{"dx":-19,"dy":-37},{"dx":-20,"dy":-44},{"dx":-7,"dy":-30},{"dx":-1,"dy":-17},{"dx":5,"dy":-30},{"dx":13,"dy":-24},{"dx":17,"dy":-21},{"dx":26,"dy":-20},{"dx":28,"dy":-12},{"dx":31,"dy":-8},{"dx":63,"dy":-7},{"dx":41,"dy":3},{"dx":35,"dy":9},{"dx":48,"dy":26},{"dx":24,"dy":20},{"dx":23,"dy":30},{"dx":26,"dy":45},{"dx":12,"dy":30},{"dx":6,"dy":29},{"dx":6,"dy":46},{"dx":1,"dy":28},{"dx":0,"dy":29},{"dx":2,"dy":32},{"dx":0,"dy":25},{"dx":-3,"dy":18},{"dx":-9,"dy":31},{"dx":-9,"dy":20},{"dx":-9,"dy":16},{"dx":-22,"dy":23},{"dx":-21,"dy":15},{"dx":-21,"dy":12},{"dx":-42,"dy":12},{"dx":-23,"dy":4},{"dx":-26,"dy":6},{"dx":-26,"dy":4},{"dx":-18,"dy":4},{"dx":-16,"dy":2},{"dx":-16,"dy":1},{"dx":-6,"dy":0},{"dx":-7,"dy":-2},{"dx":-5,"dy":-2},{"dx":-2,"dy":-1},{"dx":-1,"dy":0},{"dx":0,"dy":-1},{"dx":3,"dy":-3},{"dx":11,"dy":-1},{"dx":34,"dy":0},{"dx":35,"dy":6},{"dx":43,"dy":8},{"dx":73,"dy":15},{"dx":51,"dy":7},{"dx":42,"dy":4},{"dx":42,"dy":1},{"dx":52,"dy":-2},{"dx":33,"dy":-4},{"dx":34,"dy":-6},{"dx":36,"dy":-8},{"dx":26,"dy":-8},{"dx":19,"dy":-10},{"dx":36,"dy":-25},{"dx":19,"dy":-16},{"dx":15,"dy":-14},{"dx":25,"dy":-35},{"dx":12,"dy":-18},{"dx":10,"dy":-20},{"dx":7,"dy":-34},{"dx":0,"dy":-22},{"dx":-7,"dy":-32},{"dx":-29,"dy":-58},{"dx":-21,"dy":-37},{"dx":-32,"dy":-39},{"dx":-59,"dy":-57},{"dx":-45,"dy":-32},{"dx":-56,"dy":-36},{"dx":-90,"dy":-36},{"dx":-62,"dy":-15},{"dx":-60,"dy":-8},{"dx":-82,"dy":-1},{"dx":-47,"dy":5},{"dx":-43,"dy":14},{"dx":-46,"dy":28},{"dx":-26,"dy":22},{"dx":-17,"dy":20},{"dx":-20,"dy":32},{"dx":-9,"dy":20},{"dx":-8,"dy":19},{"dx":-8,"dy":35},{"dx":-2,"dy":23},{"dx":-1,"dy":23},{"dx":4,"dy":26},{"dx":6,"dy":18},{"dx":8,"dy":18},{"dx":21,"dy":32},{"dx":19,"dy":25},{"dx":17,"dy":19},{"dx":35,"dy":30},{"dx":24,"dy":18},{"dx":29,"dy":18},{"dx":38,"dy":22},{"dx":28,"dy":12},{"dx":22,"dy":9},{"dx":36,"dy":11},{"dx":24,"dy":6},{"dx":30,"dy":4},{"dx":49,"dy":5},{"dx":34,"dy":2},{"dx":26,"dy":0},{"dx":33,"dy":-2},{"dx":14,"dy":-4},{"dx":14,"dy":-5},{"dx":24,"dy":-9},{"dx":12,"dy":-7},{"dx":11,"dy":-8},{"dx":10,"dy":-15},{"dx":2,"dy":-10},{"dx":-4,"dy":-8},{"dx":-27,"dy":-13},{"dx":-42,"dy":-6},{"dx":-58,"dy":0},{"dx":-124,"dy":28},{"dx":-79,"dy":38},{"dx":-77,"dy":46},{"dx":-82,"dy":59},{"dx":-40,"dy":30},{"dx":-18,"dy":13},{"dx":-9,"dy":7},{"dx":-5,"dy":4},{"dx":-2,"dy":4},{"dx":-1,"dy":7},{"dx":11,"dy":9},{"dx":14,"dy":5},{"dx":26,"dy":8},{"dx":20,"dy":2},{"dx":14,"dy":-1},{"dx":6,"dy":-2},{"dx":14,"dy":0},{"dx":0,"dy":0},{"dx":0,"dy":0},{"dx":0,"dy":0},{"dx":0,"dy":0},{"dx":0,"dy":0},{"dx":0,"dy":0},{"dx":0,"dy":0},{"dx":0,"dy":0},{"dx":0,"dy":0},{"dx":0,"dy":0},{"dx":0,"dy":0},{"dx":0,"dy":0},{"dx":0,"dy":0},{"dx":0,"dy":0},{"dx":0,"dy":0},{"dx":43,"dy":-2},{"dx":54,"dy":1},{"dx":85,"dy":2},{"dx":57,"dy":0},{"dx":54,"dy":-1},{"dx":72,"dy":-3},{"dx":47,"dy":-6},{"dx":39,"dy":-6},{"dx":41,"dy":-7},{"dx":16,"dy":-4},{"dx":13,"dy":-3},{"dx":9,"dy":-4},{"dx":7,"dy":-6},{"dx":9,"dy":-11},{"dx":12,"dy":-14},{"dx":7,"dy":-12},{"dx":4,"dy":-10},{"dx":3,"dy":-21},{"dx":-3,"dy":-13},{"dx":-8,"dy":-18},{"dx":-22,"dy":-38},{"dx":-25,"dy":-25},{"dx":-36,"dy":-30},{"dx":-68,"dy":-41},{"dx":-49,"dy":-23},{"dx":-49,"dy":-21},{"dx":-74,"dy":-28},{"dx":-48,"dy":-15},{"dx":-46,"dy":-12},{"dx":-59,"dy":-14},{"dx":-29,"dy":-7},{"dx":-19,"dy":-5},{"dx":-21,"dy":-5},{"dx":-6,"dy":-2},{"dx":0,"dy":-1},{"dx":-2,"dy":-1},{"dx":0,"dy":-1},{"dx":13,"dy":-4},{"dx":48,"dy":-1},{"dx":49,"dy":0},{"dx":50,"dy":5},{"dx":78,"dy":6},{"dx":52,"dy":6},{"dx":53,"dy":5},{"dx":72,"dy":11},{"dx":32,"dy":7},{"dx":28,"dy":8},{"dx":26,"dy":10},{"dx":13,"dy":7},{"dx":12,"dy":9},{"dx":17,"dy":14},{"dx":8,"dy":8},{"dx":7,"dy":10},{"dx":8,"dy":16},{"dx":5,"dy":14},{"dx":7,"dy":13},{"dx":6,"dy":30},{"dx":5,"dy":28},{"dx":0,"dy":28},{"dx":-14,"dy":52},{"dx":-14,"dy":41},{"dx":-23,"dy":39},{"dx":-44,"dy":44},{"dx":-25,"dy":20},{"dx":-27,"dy":15},{"dx":-33,"dy":11},{"dx":-58,"dy":10},{"dx":-48,"dy":2},{"dx":-51,"dy":0},{"dx":-72,"dy":-10},{"dx":-39,"dy":-11},{"dx":-38,"dy":-20},{"dx":-40,"dy":-29},{"dx":-18,"dy":-19},{"dx":-13,"dy":-28},{"dx":-6,"dy":-41},{"dx":4,"dy":-39},{"dx":12,"dy":-41},{"dx":38,"dy":-70},{"dx":33,"dy":-45},{"dx":61,"dy":-55},{"dx":52,"dy":-33},{"dx":53,"dy":-24},{"dx":52,"dy":-17},{"dx":67,"dy":-11},{"dx":31,"dy":0},{"dx":28,"dy":5},{"dx":33,"dy":13},{"dx":18,"dy":11},{"dx":24,"dy":14},{"dx":19,"dy":15},{"dx":12,"dy":11},{"dx":11,"dy":11},{"dx":11,"dy":14},{"dx":3,"dy":6},{"dx":5,"dy":8},{"dx":5,"dy":11},{"dx":2,"dy":5},{"dx":2,"dy":6},{"dx":3,"dy":6},{"dx":1,"dy":6},{"dx":1,"dy":8},{"dx":1,"dy":21},{"dx":-2,"dy":11},{"dx":-5,"dy":13},{"dx":-21,"dy":28},{"dx":-27,"dy":24},{"dx":-24,"dy":20},{"dx":-50,"dy":35},{"dx":-37,"dy":22},{"dx":-36,"dy":21},{"dx":-65,"dy":35},{"dx":-46,"dy":17},{"dx":-39,"dy":11},{"dx":-55,"dy":9},{"dx":-30,"dy":0},{"dx":-26,"dy":-1},{"dx":-39,"dy":-13},{"dx":-25,"dy":-13},{"dx":-21,"dy":-16},{"dx":-33,"dy":-41},{"dx":-13,"dy":-27},{"dx":-8,"dy":-35},{"dx":-2,"dy":-50}],"trial_type":"plugin-moving-dots-2","trial_index":10,"plugin_version":"0.0.1","time_elapsed":190185},{"task":"fixation","rt":3044,"stimulus":"<div style=\"font-size:60px;\">+</div>","response":" ","trial_type":"html-keyboard-response","trial_index":11,"plugin_version":"2.1.0","time_elapsed":193231},{"task":"movingdots","control_change":0,"mouse_data":[{"dx":0,"dy":0},{"dx":0,"dy":0},{"dx":0,"dy":0},{"dx":0,"dy":0},{"dx":0,"dy":0},{"dx":0,"dy":0},{"dx":0,"dy":0},{"dx":0,"dy":0},{"dx":0,"dy":0},{"dx":0,"dy":0},{"dx":0,"dy":0},{"dx":0,"dy":0},{"dx":0,"dy":0},{"dx":0,"dy":0},{"dx":0,"dy":0},{"dx":0,"dy":0},{"dx":0,"dy":0},{"dx":0,"dy":0},{"dx":0,"dy":0},{"dx":0,"dy":0},{"dx":0,"dy":0},{"dx":0,"dy":0},{"dx":0,"dy":0},{"dx":0,"dy":0},{"dx":0,"dy":0},{"dx":0,"dy":0},{"dx":0,"dy":0},{"dx":0,"dy":0},{"dx":0,"dy":0},{"dx":0,"dy":0},{"dx":0,"dy":0},{"dx":0,"dy":0},{"dx":0,"dy":0},{"dx":0,"dy":0},{"dx":0,"dy":0},{"dx":0,"dy":0},{"dx":0,"dy":0},{"dx":-6,"dy":0},{"dx":-20,"dy":6},{"dx":-43,"dy":15},{"dx":-37,"dy":13},{"dx":-43,"dy":15},{"dx":-44,"dy":21},{"dx":-54,"dy":30},{"dx":-30,"dy":18},{"dx":-23,"dy":15},{"dx":-33,"dy":22},{"dx":-16,"dy":13},{"dx":-16,"dy":16},{"dx":-10,"dy":10},{"dx":-9,"dy":8},{"dx":-4,"dy":4},{"dx":-8,"dy":9},{"dx":-1,"dy":1},{"dx":-4,"dy":3},{"dx":-1,"dy":1},{"dx":-1,"dy":0},{"dx":-1,"dy":0},{"dx":0,"dy":0},{"dx":5,"dy":2},{"dx":13,"dy":0},{"dx":44,"dy":-1},{"dx":48,"dy":0},{"dx":52,"dy":2},{"dx":88,"dy":4},{"dx":53,"dy":2},{"dx":53,"dy":-3},{"dx":81,"dy":-11},{"dx":40,"dy":-5},{"dx":38,"dy":-1},{"dx":33,"dy":1},{"dx":18,"dy":2},{"dx":13,"dy":0},{"dx":21,"dy":-4},{"dx":15,"dy":-7},{"dx":12,"dy":-8},{"dx":16,"dy":-20},{"dx":13,"dy":-24},{"dx":11,"dy":-24},{"dx":6,"dy":-51},{"dx":-7,"dy":-41},{"dx":-14,"dy":-43},{"dx":-38,"dy":-64},{"dx":-31,"dy":-33},{"dx":-43,"dy":-31},{"dx":-77,"dy":-45},{"dx":-55,"dy":-23},{"dx":-54,"dy":-17},{"dx":-78,"dy":-17},{"dx":-50,"dy":-3},{"dx":-48,"dy":2},{"dx":-52,"dy":8},{"dx":-29,"dy":9},{"dx":-20,"dy":8},{"dx":-26,"dy":17},{"dx":-17,"dy":12},{"dx":-15,"dy":15},{"dx":-24,"dy":27},{"dx":-19,"dy":22},{"dx":-12,"dy":18},{"dx":-20,"dy":35},{"dx":-12,"dy":24},{"dx":-12,"dy":30},{"dx":-12,"dy":40},{"dx":-2,"dy":24},{"dx":0,"dy":20},{"dx":13,"dy":34},{"dx":17,"dy":25},{"dx":31,"dy":26},{"dx":62,"dy":34},{"dx":58,"dy":24},{"dx":62,"dy":20},{"dx":100,"dy":26},{"dx":61,"dy":10},{"dx":58,"dy":7},{"dx":72,"dy":4},{"dx":40,"dy":2},{"dx":36,"dy":1},{"dx":57,"dy":2},{"dx":28,"dy":0},{"dx":35,"dy":-3},{"dx":32,"dy":-2},{"dx":58,"dy":0},{"dx":36,"dy":2},{"dx":21,"dy":2},{"dx":18,"dy":3},{"dx":6,"dy":0},{"dx":1,"dy":0},{"dx":2,"dy":0},{"dx":0,"dy":0},{"dx":-9,"dy":0},{"dx":-56,"dy":-3},{"dx":-59,"dy":-5},{"dx":-68,"dy":-7},{"dx":-105,"dy":-8},{"dx":-76,"dy":-7},{"dx":-61,"dy":-7},{"dx":-78,"dy":-9},{"dx":-30,"dy":-8},{"dx":-25,"dy":-8},{"dx":-26,"dy":-11},{"dx":-14,"dy":-10},{"dx":-14,"dy":-20},{"dx":-19,"dy":-39},{"dx":-6,"dy":-34},{"dx":1,"dy":-36},{"dx":11,"dy":-64},{"dx":12,"dy":-38},{"dx":19,"dy":-42},{"dx":33,"dy":-42},{"dx":27,"dy":-27},{"dx":35,"dy":-21},{"dx":70,"dy":-20},{"dx":56,"dy":-8},{"dx":54,"dy":-4},{"dx":66,"dy":-1},{"dx":42,"dy":3},{"dx":30,"dy":6},{"dx":59,"dy":14},{"dx":37,"dy":14},{"dx":31,"dy":14},{"dx":34,"dy":17},{"dx":14,"dy":9},{"dx":9,"dy":11},{"dx":14,"dy":21},{"dx":7,"dy":13},{"dx":6,"dy":16},{"dx":2,"dy":25},{"dx":-2,"dy":17},{"dx":-11,"dy":30},{"dx":-39,"dy":57},{"dx":-32,"dy":37},{"dx":-46,"dy":42},{"dx":-67,"dy":62},{"dx":-48,"dy":39},{"dx":-46,"dy":33},{"dx":-66,"dy":33},{"dx":-38,"dy":13},{"dx":-40,"dy":6},{"dx":-52,"dy":1},{"dx":-35,"dy":-7},{"dx":-40,"dy":-15},{"dx":-59,"dy":-33},{"dx":-36,"dy":-25},{"dx":-36,"dy":-24},{"dx":-39,"dy":-34},{"dx":-13,"dy":-12},{"dx":-10,"dy":-12},{"dx":-13,"dy":-24},{"dx":-5,"dy":-12},{"dx":-4,"dy":-13},{"dx":-3,"dy":-13},{"dx":0,"dy":0},{"dx":-1,"dy":-2},{"dx":4,"dy":-2},{"dx":20,"dy":11},{"dx":34,"dy":19},{"dx":74,"dy":44},{"dx":54,"dy":32},{"dx":58,"dy":31},{"dx":77,"dy":36},{"dx":52,"dy":16},{"dx":44,"dy":6},{"dx":65,"dy":1},{"dx":42,"dy":-6},{"dx":32,"dy":-12},{"dx":50,"dy":-25},{"dx":22,"dy":-16},{"dx":28,"dy":-26},{"dx":29,"dy":-37},{"dx":14,"dy":-33},{"dx":11,"dy":-30},{"dx":8,"dy":-27},{"dx":9,"dy":-42},{"dx":0,"dy":-20},{"dx":-8,"dy":-30},{"dx":-20,"dy":-35},{"dx":-34,"dy":-34},{"dx":-39,"dy":-29},{"dx":-73,"dy":-38},{"dx":-53,"dy":-24},{"dx":-55,"dy":-22},{"dx":-84,"dy":-23},{"dx":-56,"dy":-10},{"dx":-53,"dy":-7},{"dx":-76,"dy":-5},{"dx":-53,"dy":2},{"dx":-50,"dy":5},{"dx":-78,"dy":12},{"dx":-42,"dy":11},{"dx":-40,"dy":12},{"dx":-46,"dy":16},{"dx":-24,"dy":13},{"dx":-14,"dy":10},{"dx":-18,"dy":17},{"dx":-9,"dy":13},{"dx":-5,"dy":11},{"dx":-2,"dy":17},{"dx":3,"dy":14},{"dx":9,"dy":14},{"dx":39,"dy":29},{"dx":42,"dy":27},{"dx":50,"dy":25},{"dx":84,"dy":42},{"dx":54,"dy":28},{"dx":51,"dy":23},{"dx":71,"dy":26},{"dx":48,"dy":18},{"dx":47,"dy":14},{"dx":56,"dy":19},{"dx":33,"dy":9},{"dx":30,"dy":10},{"dx":40,"dy":13},{"dx":21,"dy":9},{"dx":15,"dy":8},{"dx":10,"dy":5},{"dx":5,"dy":5},{"dx":2,"dy":5},{"dx":-2,"dy":2},{"dx":-14,"dy":0},{"dx":-32,"dy":-6},{"dx":-52,"dy":-13},{"dx":-97,"dy":-19},{"dx":-66,"dy":-12},{"dx":-67,"dy":-15},{"dx":-87,"dy":-29},{"dx":-42,"dy":-25},{"dx":-25,"dy":-18},{"dx":-27,"dy":-35},{"dx":-8,"dy":-23},{"dx":-3,"dy":-21},{"dx":10,"dy":-45},{"dx":20,"dy":-34},{"dx":32,"dy":-37},{"dx":59,"dy":-41},{"dx":47,"dy":-27},{"dx":52,"dy":-20},{"dx":82,"dy":-18},{"dx":53,"dy":-5},{"dx":49,"dy":0},{"dx":62,"dy":10},{"dx":39,"dy":14},{"dx":34,"dy":14},{"dx":53,"dy":26},{"dx":31,"dy":18},{"dx":26,"dy":19},{"dx":24,"dy":19},{"dx":12,"dy":13},{"dx":11,"dy":13},{"dx":11,"dy":20},{"dx":6,"dy":12},{"dx":4,"dy":16},{"dx":5,"dy":26},{"dx":1,"dy":17},{"dx":-2,"dy":25},{"dx":-16,"dy":33},{"dx":-20,"dy":28},{"dx":-18,"dy":19},{"dx":-37,"dy":24},{"dx":-27,"dy":14},{"dx":-31,"dy":14},{"dx":-59,"dy":23},{"dx":-39,"dy":15},{"dx":-45,"dy":15},{"dx":-48,"dy":17},{"dx":-35,"dy":5},{"dx":-32,"dy":4},{"dx":-46,"dy":1},{"dx":-32,"dy":0},{"dx":-27,"dy":-3},{"dx":-46,"dy":-8},{"dx":-34,"dy":-9},{"dx":-35,"dy":-11},{"dx":-48,"dy":-28},{"dx":-23,"dy":-15},{"dx":-11,"dy":-9},{"dx":-10,"dy":-8},{"dx":-1,"dy":-1},{"dx":-1,"dy":0},{"dx":0,"dy":-1},{"dx":15,"dy":0},{"dx":27,"dy":8},{"dx":69,"dy":21},{"dx":55,"dy":16},{"dx":59,"dy":16},{"dx":90,"dy":15},{"dx":55,"dy":4},{"dx":56,"dy":0},{"dx":86,"dy":-14},{"dx":54,"dy":-19},{"dx":42,"dy":-21},{"dx":69,"dy":-47},{"dx":30,"dy":-33},{"dx":24,"dy":-34},{"dx":22,"dy":-51},{"dx":2,"dy":-37},{"dx":-3,"dy":-34},{"dx":-31,"dy":-65},{"dx":-26,"dy":-30},{"dx":-39,"dy":-40},{"dx":-67,"dy":-46},{"dx":-49,"dy":-28},{"dx":-54,"dy":-28},{"dx":-89,"dy":-31},{"dx":-59,"dy":-13},{"dx":-61,"dy":-12},{"dx":-82,"dy":-12},{"dx":-50,"dy":-2},{"dx":-43,"dy":1},{"dx":-40,"dy":6},{"dx":-51,"dy":15},{"dx":-30,"dy":11},{"dx":-26,"dy":14},{"dx":-37,"dy":22},{"dx":-19,"dy":16},{"dx":-18,"dy":19},{"dx":-20,"dy":29},{"dx":-6,"dy":15},{"dx":-2,"dy":16},{"dx":6,"dy":25},{"dx":8,"dy":21},{"dx":13,"dy":23},{"dx":29,"dy":35},{"dx":23,"dy":23},{"dx":29,"dy":25},{"dx":58,"dy":39},{"dx":48,"dy":31},{"dx":52,"dy":25},{"dx":84,"dy":37},{"dx":59,"dy":25},{"dx":55,"dy":23},{"dx":75,"dy":30},{"dx":43,"dy":18},{"dx":31,"dy":13},{"dx":35,"dy":12},{"dx":12,"dy":3},{"dx":4,"dy":1},{"dx":1,"dy":0},{"dx":0,"dy":0},{"dx":0,"dy":0},{"dx":-34,"dy":-16},{"dx":-52,"dy":-19},{"dx":-64,"dy":-23},{"dx":-116,"dy":-43},{"dx":-72,"dy":-18},{"dx":-63,"dy":-12},{"dx":-69,"dy":-11},{"dx":-33,"dy":-4},{"dx":-26,"dy":-3},{"dx":-19,"dy":-3},{"dx":-8,"dy":-3},{"dx":-3,"dy":-3},{"dx":-3,"dy":-5},{"dx":-1,"dy":-6},{"dx":1,"dy":-12},{"dx":17,"dy":-34},{"dx":20,"dy":-27},{"dx":28,"dy":-28},{"dx":64,"dy":-48},{"dx":49,"dy":-24},{"dx":54,"dy":-20},{"dx":84,"dy":-18},{"dx":55,"dy":-7},{"dx":52,"dy":-2},{"dx":69,"dy":0},{"dx":40,"dy":4},{"dx":29,"dy":4},{"dx":43,"dy":9},{"dx":23,"dy":9},{"dx":25,"dy":12},{"dx":34,"dy":22},{"dx":11,"dy":11},{"dx":10,"dy":11},{"dx":12,"dy":24},{"dx":5,"dy":17},{"dx":3,"dy":18},{"dx":0,"dy":26},{"dx":-5,"dy":19},{"dx":-10,"dy":22},{"dx":-24,"dy":37},{"dx":-24,"dy":24},{"dx":-32,"dy":24},{"dx":-50,"dy":32},{"dx":-40,"dy":16},{"dx":-41,"dy":13},{"dx":-70,"dy":14},{"dx":-49,"dy":6},{"dx":-46,"dy":3},{"dx":-70,"dy":-3},{"dx":-47,"dy":-9},{"dx":-51,"dy":-13},{"dx":-62,"dy":-29},{"dx":-30,"dy":-17},{"dx":-20,"dy":-13},{"dx":-17,"dy":-11},{"dx":-5,"dy":-5},{"dx":0,"dy":0},{"dx":-1,"dy":-1},{"dx":2,"dy":-4},{"dx":11,"dy":1},{"dx":18,"dy":2},{"dx":39,"dy":12},{"dx":36,"dy":11},{"dx":43,"dy":15},{"dx":69,"dy":23},{"dx":50,"dy":11},{"dx":52,"dy":8},{"dx":73,"dy":4},{"dx":45,"dy":-6},{"dx":46,"dy":-11},{"dx":66,"dy":-27},{"dx":42,"dy":-21}],"trial_type":"plugin-moving-dots-2","trial_index":12,"plugin_version":"0.0.1","time_elapsed":200735},{"task":"fixation","rt":1870,"stimulus":"<div style=\"font-size:60px;\">+</div>","response":" ","trial_type":"html-keyboard-response","trial_index":13,"plugin_version":"2.1.0","time_elapsed":202606},{"task":"movingdots","control_change":0,"mouse_data":[{"dx":0,"dy":0},{"dx":0,"dy":0},{"dx":0,"dy":0},{"dx":0,"dy":0},{"dx":0,"dy":0},{"dx":0,"dy":0},{"dx":0,"dy":0},{"dx":0,"dy":0},{"dx":0,"dy":0},{"dx":0,"dy":0},{"dx":0,"dy":0},{"dx":0,"dy":0},{"dx":0,"dy":0},{"dx":0,"dy":0},{"dx":0,"dy":0},{"dx":0,"dy":0},{"dx":0,"dy":0},{"dx":0,"dy":0},{"dx":0,"dy":0},{"dx":0,"dy":0},{"dx":0,"dy":0},{"dx":0,"dy":0},{"dx":0,"dy":0},{"dx":0,"dy":0},{"dx":0,"dy":0},{"dx":0,"dy":0},{"dx":0,"dy":0},{"dx":0,"dy":0},{"dx":0,"dy":0},{"dx":0,"dy":0},{"dx":0,"dy":0},{"dx":0,"dy":0},{"dx":0,"dy":0},{"dx":0,"dy":0},{"dx":-36,"dy":7},{"dx":-37,"dy":9},{"dx":-55,"dy":16},{"dx":-33,"dy":11},{"dx":-35,"dy":13},{"dx":-44,"dy":23},{"dx":-27,"dy":14},{"dx":-23,"dy":15},{"dx":-34,"dy":22},{"dx":-16,"dy":13},{"dx":-19,"dy":12},{"dx":-26,"dy":19},{"dx":-14,"dy":10},{"dx":-15,"dy":9},{"dx":-18,"dy":13},{"dx":-12,"dy":9},{"dx":-11,"dy":10},{"dx":-15,"dy":13},{"dx":-7,"dy":9},{"dx":-5,"dy":8},{"dx":-3,"dy":5},{"dx":-1,"dy":5},{"dx":0,"dy":0},{"dx":-1,"dy":2},{"dx":0,"dy":0},{"dx":8,"dy":2},{"dx":35,"dy":-8},{"dx":35,"dy":-10},{"dx":49,"dy":-13},{"dx":59,"dy":-25},{"dx":36,"dy":-25},{"dx":28,"dy":-20},{"dx":28,"dy":-22},{"dx":8,"dy":-9},{"dx":3,"dy":-4},{"dx":0,"dy":0},{"dx":-9,"dy":-2},{"dx":-25,"dy":6},{"dx":-71,"dy":17},{"dx":-59,"dy":19},{"dx":-59,"dy":18},{"dx":-60,"dy":21},{"dx":-53,"dy":21},{"dx":-11,"dy":9},{"dx":-4,"dy":4},{"dx":-4,"dy":7},{"dx":-1,"dy":1},{"dx":0,"dy":1},{"dx":0,"dy":0},{"dx":0,"dy":-6},{"dx":2,"dy":-13},{"dx":8,"dy":-34},{"dx":8,"dy":-31},{"dx":10,"dy":-34},{"dx":23,"dy":-47},{"dx":16,"dy":-32},{"dx":20,"dy":-31},{"dx":35,"dy":-47},{"dx":16,"dy":-23},{"dx":21,"dy":-25},{"dx":35,"dy":-37},{"dx":26,"dy":-21},{"dx":36,"dy":-23},{"dx":58,"dy":-30},{"dx":30,"dy":-11},{"dx":39,"dy":-9},{"dx":73,"dy":-6},{"dx":54,"dy":0},{"dx":50,"dy":5},{"dx":74,"dy":15},{"dx":43,"dy":15},{"dx":33,"dy":14},{"dx":54,"dy":27},{"dx":29,"dy":17},{"dx":26,"dy":20},{"dx":20,"dy":20},{"dx":11,"dy":13},{"dx":11,"dy":16},{"dx":18,"dy":27},{"dx":9,"dy":21},{"dx":9,"dy":30},{"dx":11,"dy":50},{"dx":3,"dy":37},{"dx":2,"dy":38},{"dx":-1,"dy":50},{"dx":-6,"dy":38},{"dx":-11,"dy":28},{"dx":-27,"dy":37},{"dx":-19,"dy":15},{"dx":-22,"dy":13},{"dx":-36,"dy":12},{"dx":-35,"dy":7},{"dx":-42,"dy":6},{"dx":-69,"dy":2},{"dx":-53,"dy":-2},{"dx":-55,"dy":-8},{"dx":-79,"dy":-19},{"dx":-53,"dy":-17},{"dx":-47,"dy":-17},{"dx":-73,"dy":-33},{"dx":-46,"dy":-27},{"dx":-32,"dy":-23},{"dx":-38,"dy":-30},{"dx":-18,"dy":-21},{"dx":-11,"dy":-15},{"dx":-10,"dy":-20},{"dx":-4,"dy":-16},{"dx":-2,"dy":-14},{"dx":0,"dy":-14},{"dx":1,"dy":-5},{"dx":1,"dy":-1},{"dx":3,"dy":-4},{"dx":8,"dy":0},{"dx":13,"dy":4},{"dx":18,"dy":12},{"dx":19,"dy":14},{"dx":23,"dy":17},{"dx":51,"dy":31},{"dx":40,"dy":21},{"dx":48,"dy":25},{"dx":51,"dy":22},{"dx":80,"dy":31},{"dx":47,"dy":14},{"dx":48,"dy":11},{"dx":64,"dy":11},{"dx":39,"dy":0},{"dx":42,"dy":-5},{"dx":65,"dy":-20},{"dx":35,"dy":-17},{"dx":45,"dy":-29},{"dx":44,"dy":-36},{"dx":29,"dy":-25},{"dx":24,"dy":-26},{"dx":23,"dy":-28},{"dx":10,"dy":-19},{"dx":6,"dy":-18},{"dx":3,"dy":-21},{"dx":0,"dy":-17},{"dx":-6,"dy":-16},{"dx":-13,"dy":-21},{"dx":-23,"dy":-23},{"dx":-56,"dy":-40},{"dx":-50,"dy":-25},{"dx":-50,"dy":-23},{"dx":-52,"dy":-25},{"dx":-83,"dy":-23},{"dx":-62,"dy":-11},{"dx":-89,"dy":-13},{"dx":-58,"dy":-6},{"dx":-54,"dy":-2},{"dx":-48,"dy":-1},{"dx":-63,"dy":4},{"dx":-43,"dy":6},{"dx":-40,"dy":11},{"dx":-55,"dy":20},{"dx":-34,"dy":14},{"dx":-25,"dy":11},{"dx":-24,"dy":14},{"dx":-9,"dy":8},{"dx":-8,"dy":9},{"dx":-6,"dy":10},{"dx":-3,"dy":8},{"dx":0,"dy":7},{"dx":5,"dy":11},{"dx":12,"dy":10},{"dx":23,"dy":14},{"dx":45,"dy":20},{"dx":33,"dy":16},{"dx":33,"dy":17},{"dx":68,"dy":35},{"dx":55,"dy":20},{"dx":59,"dy":23},{"dx":81,"dy":35},{"dx":48,"dy":22},{"dx":53,"dy":24},{"dx":74,"dy":36},{"dx":48,"dy":24},{"dx":44,"dy":21},{"dx":49,"dy":29},{"dx":23,"dy":15},{"dx":12,"dy":9},{"dx":9,"dy":6},{"dx":4,"dy":4},{"dx":3,"dy":4},{"dx":0,"dy":0},{"dx":-6,"dy":4},{"dx":-19,"dy":1},{"dx":-54,"dy":1},{"dx":-51,"dy":-1},{"dx":-59,"dy":-3},{"dx":-88,"dy":-7},{"dx":-58,"dy":-4},{"dx":-49,"dy":-4},{"dx":-63,"dy":-8},{"dx":-33,"dy":-6},{"dx":-28,"dy":-12},{"dx":-30,"dy":-18},{"dx":-11,"dy":-10},{"dx":-9,"dy":-20},{"dx":-4,"dy":-27},{"dx":2,"dy":-31},{"dx":9,"dy":-31},{"dx":28,"dy":-51},{"dx":19,"dy":-31},{"dx":29,"dy":-30},{"dx":56,"dy":-45},{"dx":36,"dy":-19},{"dx":32,"dy":-13},{"dx":49,"dy":-16},{"dx":39,"dy":-9},{"dx":36,"dy":-5},{"dx":64,"dy":-1},{"dx":45,"dy":5},{"dx":37,"dy":7},{"dx":46,"dy":14},{"dx":32,"dy":13},{"dx":30,"dy":16},{"dx":36,"dy":23},{"dx":21,"dy":15},{"dx":14,"dy":13},{"dx":14,"dy":20},{"dx":7,"dy":11},{"dx":6,"dy":13},{"dx":3,"dy":23},{"dx":0,"dy":15},{"dx":-4,"dy":17},{"dx":-15,"dy":31},{"dx":-23,"dy":22},{"dx":-30,"dy":24},{"dx":-34,"dy":24},{"dx":-54,"dy":29},{"dx":-40,"dy":15},{"dx":-49,"dy":13},{"dx":-80,"dy":10},{"dx":-53,"dy":3},{"dx":-49,"dy":0},{"dx":-68,"dy":-3},{"dx":-43,"dy":-5},{"dx":-40,"dy":-8},{"dx":-58,"dy":-20},{"dx":-33,"dy":-17},{"dx":-27,"dy":-18},{"dx":-26,"dy":-23},{"dx":-13,"dy":-19},{"dx":-12,"dy":-24},{"dx":-9,"dy":-33},{"dx":1,"dy":-27},{"dx":5,"dy":-26},{"dx":17,"dy":-51},{"dx":14,"dy":-29},{"dx":24,"dy":-35},{"dx":31,"dy":-34},{"dx":30,"dy":-23},{"dx":30,"dy":-22},{"dx":50,"dy":-22},{"dx":38,"dy":-9},{"dx":35,"dy":-6},{"dx":50,"dy":0},{"dx":26,"dy":2},{"dx":29,"dy":6},{"dx":45,"dy":16},{"dx":31,"dy":14},{"dx":28,"dy":15},{"dx":38,"dy":24},{"dx":20,"dy":19},{"dx":21,"dy":23},{"dx":29,"dy":36},{"dx":12,"dy":29},{"dx":8,"dy":27},{"dx":6,"dy":41},{"dx":0,"dy":20},{"dx":0,"dy":23},{"dx":-6,"dy":27},{"dx":-7,"dy":21},{"dx":-13,"dy":23},{"dx":-21,"dy":23},{"dx":-14,"dy":14},{"dx":-20,"dy":15},{"dx":-35,"dy":20},{"dx":-30,"dy":10},{"dx":-30,"dy":7},{"dx":-49,"dy":3},{"dx":-39,"dy":0},{"dx":-39,"dy":-5},{"dx":-65,"dy":-15},{"dx":-43,"dy":-18},{"dx":-37,"dy":-18},{"dx":-55,"dy":-40},{"dx":-26,"dy":-28},{"dx":-23,"dy":-30},{"dx":-21,"dy":-51},{"dx":-6,"dy":-37},{"dx":0,"dy":-37},{"dx":14,"dy":-54},{"dx":13,"dy":-33},{"dx":17,"dy":-36},{"dx":32,"dy":-48},{"dx":19,"dy":-22},{"dx":22,"dy":-25},{"dx":37,"dy":-28},{"dx":28,"dy":-16},{"dx":30,"dy":-11},{"dx":39,"dy":-10},{"dx":25,"dy":-3},{"dx":21,"dy":0},{"dx":39,"dy":4},{"dx":35,"dy":6},{"dx":30,"dy":9},{"dx":47,"dy":14},{"dx":19,"dy":10},{"dx":21,"dy":14},{"dx":26,"dy":16},{"dx":10,"dy":12},{"dx":10,"dy":12},{"dx":15,"dy":26},{"dx":9,"dy":17},{"dx":7,"dy":22},{"dx":6,"dy":29},{"dx":3,"dy":24},{"dx":0,"dy":22},{"dx":-6,"dy":31},{"dx":-10,"dy":27},{"dx":-12,"dy":21},{"dx":-23,"dy":30},{"dx":-20,"dy":18},{"dx":-26,"dy":17},{"dx":-35,"dy":17},{"dx":-23,"dy":10},{"dx":-32,"dy":11},{"dx":-45,"dy":8},{"dx":-30,"dy":2},{"dx":-23,"dy":-1},{"dx":-33,"dy":-6},{"dx":-15,"dy":-6},{"dx":-19,"dy":-7},{"dx":-21,"dy":-11},{"dx":-13,"dy":-9},{"dx":-11,"dy":-9},{"dx":-15,"dy":-13},{"dx":-7,"dy":-9},{"dx":-6,"dy":-11},{"dx":-9,"dy":-25},{"dx":-4,"dy":-15},{"dx":-2,"dy":-24},{"dx":0,"dy":-17},{"dx":5,"dy":-25},{"dx":7,"dy":-25},{"dx":12,"dy":-23},{"dx":21,"dy":-32},{"dx":13,"dy":-16},{"dx":10,"dy":-13},{"dx":16,"dy":-14},{"dx":9,"dy":-8},{"dx":9,"dy":-9},{"dx":16,"dy":-9},{"dx":10,"dy":-5},{"dx":5,"dy":-2},{"dx":13,"dy":-3},{"dx":10,"dy":-1},{"dx":4,"dy":0},{"dx":11,"dy":0},{"dx":5,"dy":0},{"dx":0,"dy":0},{"dx":5,"dy":2},{"dx":1,"dy":0},{"dx":3,"dy":3},{"dx":0,"dy":1},{"dx":0,"dy":0},{"dx":0,"dy":1},{"dx":-4,"dy":5},{"dx":-11,"dy":2},{"dx":-13,"dy":2},{"dx":-22,"dy":4},{"dx":-14,"dy":3},{"dx":-15,"dy":4},{"dx":-26,"dy":8},{"dx":-13,"dy":6},{"dx":-19,"dy":13},{"dx":-11,"dy":10},{"dx":-11,"dy":12},{"dx":-9,"dy":12},{"dx":-13,"dy":24},{"dx":-7,"dy":17},{"dx":-5,"dy":19},{"dx":-4,"dy":28},{"dx":0,"dy":16},{"dx":1,"dy":19},{"dx":7,"dy":27},{"dx":10,"dy":15},{"dx":15,"dy":20},{"dx":21,"dy":20},{"dx":21,"dy":14},{"dx":26,"dy":12},{"dx":57,"dy":17},{"dx":43,"dy":8},{"dx":53,"dy":10},{"dx":87,"dy":12},{"dx":61,"dy":6},{"dx":69,"dy":3},{"dx":94,"dy":-6},{"dx":63,"dy":-10},{"dx":57,"dy":-14},{"dx":64,"dy":-19},{"dx":27,"dy":-13},{"dx":14,"dy":-10},{"dx":8,"dy":-11},{"dx":3,"dy":-10},{"dx":-3,"dy":-14},{"dx":-20,"dy":-32},{"dx":-23,"dy":-23},{"dx":-41,"dy":-30},{"dx":-76,"dy":-48},{"dx":-57,"dy":-26},{"dx":-62,"dy":-29},{"dx":-102,"dy":-40},{"dx":-65,"dy":-18},{"dx":-71,"dy":-19},{"dx":-108,"dy":-19},{"dx":-68,"dy":-8}],"trial_type":"plugin-moving-dots-2","trial_index":14,"plugin_version":"0.0.1","time_elapsed":210118},{"task":"fixation","rt":2328,"stimulus":"<div style=\"font-size:60px;\">+</div>","response":" ","trial_type":"html-keyboard-response","trial_index":15,"plugin_version":"2.1.0","time_elapsed":212447},{"task":"movingdots","control_change":0,"mouse_data":[{"dx":0,"dy":0},{"dx":0,"dy":0},{"dx":0,"dy":0},{"dx":0,"dy":0},{"dx":0,"dy":0},{"dx":0,"dy":0},{"dx":0,"dy":0},{"dx":0,"dy":0},{"dx":0,"dy":0},{"dx":0,"dy":0},{"dx":0,"dy":0},{"dx":0,"dy":0},{"dx":0,"dy":0},{"dx":0,"dy":0},{"dx":0,"dy":0},{"dx":0,"dy":0},{"dx":0,"dy":0},{"dx":0,"dy":0},{"dx":0,"dy":0},{"dx":0,"dy":0},{"dx":0,"dy":0},{"dx":0,"dy":0},{"dx":0,"dy":0},{"dx":0,"dy":0},{"dx":0,"dy":0},{"dx":0,"dy":0},{"dx":0,"dy":0},{"dx":0,"dy":0},{"dx":0,"dy":0},{"dx":0,"dy":0},{"dx":-14,"dy":2},{"dx":-29,"dy":5},{"dx":-46,"dy":11},{"dx":-33,"dy":8},{"dx":-34,"dy":12},{"dx":-50,"dy":18},{"dx":-33,"dy":10},{"dx":-33,"dy":11},{"dx":-65,"dy":19},{"dx":-43,"dy":13},{"dx":-38,"dy":12},{"dx":-43,"dy":10},{"dx":-20,"dy":5},{"dx":-14,"dy":3},{"dx":-13,"dy":2},{"dx":-7,"dy":1},{"dx":-4,"dy":1},{"dx":-5,"dy":0},{"dx":-1,"dy":0},{"dx":0,"dy":0},{"dx":2,"dy":-8},{"dx":10,"dy":-10},{"dx":12,"dy":-10},{"dx":42,"dy":-30},{"dx":35,"dy":-27},{"dx":51,"dy":-29},{"dx":87,"dy":-53},{"dx":57,"dy":-31},{"dx":52,"dy":-29},{"dx":67,"dy":-42},{"dx":44,"dy":-21},{"dx":34,"dy":-12},{"dx":54,"dy":-16},{"dx":32,"dy":-8},{"dx":31,"dy":-4},{"dx":32,"dy":-1},{"dx":27,"dy":0},{"dx":24,"dy":1},{"dx":37,"dy":5},{"dx":22,"dy":4},{"dx":21,"dy":6},{"dx":32,"dy":9},{"dx":27,"dy":11},{"dx":23,"dy":13},{"dx":32,"dy":21},{"dx":11,"dy":10},{"dx":9,"dy":13},{"dx":14,"dy":24},{"dx":8,"dy":16},{"dx":2,"dy":17},{"dx":0,"dy":31},{"dx":-3,"dy":20},{"dx":-11,"dy":27},{"dx":-25,"dy":35},{"dx":-23,"dy":24},{"dx":-24,"dy":22},{"dx":-46,"dy":34},{"dx":-34,"dy":22},{"dx":-34,"dy":18},{"dx":-64,"dy":20},{"dx":-46,"dy":9},{"dx":-48,"dy":5},{"dx":-71,"dy":2},{"dx":-56,"dy":-2},{"dx":-60,"dy":-8},{"dx":-94,"dy":-15},{"dx":-61,"dy":-13},{"dx":-55,"dy":-11},{"dx":-73,"dy":-19},{"dx":-39,"dy":-14},{"dx":-29,"dy":-18},{"dx":-34,"dy":-28},{"dx":-14,"dy":-19},{"dx":-12,"dy":-29},{"dx":-6,"dy":-37},{"dx":1,"dy":-30},{"dx":8,"dy":-29},{"dx":25,"dy":-51},{"dx":15,"dy":-24},{"dx":21,"dy":-24},{"dx":30,"dy":-31},{"dx":66,"dy":-37},{"dx":58,"dy":-21},{"dx":100,"dy":-27},{"dx":67,"dy":-12},{"dx":64,"dy":-5},{"dx":63,"dy":0},{"dx":89,"dy":10},{"dx":63,"dy":11},{"dx":56,"dy":14},{"dx":53,"dy":18},{"dx":20,"dy":10},{"dx":12,"dy":9},{"dx":14,"dy":13},{"dx":6,"dy":6},{"dx":3,"dy":5},{"dx":2,"dy":4},{"dx":0,"dy":7},{"dx":-2,"dy":5},{"dx":-17,"dy":12},{"dx":-31,"dy":10},{"dx":-51,"dy":11},{"dx":-107,"dy":15},{"dx":-83,"dy":14},{"dx":-86,"dy":13},{"dx":-139,"dy":22},{"dx":-83,"dy":19},{"dx":-73,"dy":19},{"dx":-80,"dy":27},{"dx":-36,"dy":21},{"dx":-20,"dy":15},{"dx":-13,"dy":18},{"dx":-5,"dy":12},{"dx":-1,"dy":14},{"dx":8,"dy":22},{"dx":13,"dy":14},{"dx":21,"dy":19},{"dx":43,"dy":22},{"dx":31,"dy":15},{"dx":42,"dy":14},{"dx":68,"dy":21},{"dx":48,"dy":14},{"dx":54,"dy":10},{"dx":97,"dy":10},{"dx":56,"dy":3},{"dx":103,"dy":-13},{"dx":64,"dy":-16},{"dx":62,"dy":-21},{"dx":54,"dy":-25},{"dx":57,"dy":-41},{"dx":22,"dy":-19},{"dx":10,"dy":-16},{"dx":6,"dy":-24},{"dx":-1,"dy":-13},{"dx":-10,"dy":-21},{"dx":-31,"dy":-38},{"dx":-31,"dy":-26},{"dx":-41,"dy":-29},{"dx":-63,"dy":-42},{"dx":-51,"dy":-28},{"dx":-51,"dy":-26},{"dx":-75,"dy":-32},{"dx":-44,"dy":-18},{"dx":-45,"dy":-17},{"dx":-67,"dy":-22},{"dx":-45,"dy":-13},{"dx":-40,"dy":-8},{"dx":-63,"dy":-8},{"dx":-32,"dy":-3},{"dx":-27,"dy":-2},{"dx":-19,"dy":0},{"dx":-7,"dy":0},{"dx":0,"dy":0},{"dx":-1,"dy":0},{"dx":3,"dy":1},{"dx":27,"dy":3},{"dx":74,"dy":10},{"dx":68,"dy":8},{"dx":79,"dy":10},{"dx":127,"dy":18},{"dx":80,"dy":10},{"dx":76,"dy":11},{"dx":101,"dy":21},{"dx":51,"dy":16},{"dx":43,"dy":17},{"dx":46,"dy":21},{"dx":24,"dy":12},{"dx":13,"dy":9},{"dx":14,"dy":14},{"dx":3,"dy":6},{"dx":2,"dy":5},{"dx":1,"dy":5},{"dx":0,"dy":5},{"dx":0,"dy":7},{"dx":-4,"dy":20},{"dx":-3,"dy":12},{"dx":-5,"dy":11},{"dx":-14,"dy":22},{"dx":-15,"dy":15},{"dx":-26,"dy":18},{"dx":-44,"dy":18},{"dx":-34,"dy":12},{"dx":-42,"dy":12},{"dx":-79,"dy":18},{"dx":-56,"dy":10},{"dx":-55,"dy":7},{"dx":-87,"dy":8},{"dx":-57,"dy":4},{"dx":-48,"dy":3},{"dx":-54,"dy":2},{"dx":-34,"dy":-1},{"dx":-23,"dy":-3},{"dx":-24,"dy":-6},{"dx":-11,"dy":-7},{"dx":-7,"dy":-10},{"dx":-6,"dy":-15},{"dx":0,"dy":-20},{"dx":5,"dy":-30},{"dx":27,"dy":-59},{"dx":22,"dy":-40},{"dx":32,"dy":-43},{"dx":54,"dy":-54},{"dx":48,"dy":-33},{"dx":54,"dy":-29},{"dx":56,"dy":-20},{"dx":84,"dy":-17},{"dx":49,"dy":-6},{"dx":79,"dy":-5},{"dx":48,"dy":0},{"dx":38,"dy":3},{"dx":47,"dy":6},{"dx":25,"dy":5},{"dx":21,"dy":5},{"dx":21,"dy":7},{"dx":14,"dy":5},{"dx":11,"dy":5},{"dx":9,"dy":5},{"dx":11,"dy":5},{"dx":9,"dy":5},{"dx":12,"dy":8},{"dx":9,"dy":7},{"dx":7,"dy":6},{"dx":9,"dy":11},{"dx":3,"dy":5},{"dx":3,"dy":4},{"dx":0,"dy":0},{"dx":-1,"dy":9},{"dx":-6,"dy":5},{"dx":-18,"dy":8},{"dx":-17,"dy":4},{"dx":-27,"dy":3},{"dx":-50,"dy":3},{"dx":-42,"dy":1},{"dx":-48,"dy":0},{"dx":-77,"dy":-2},{"dx":-59,"dy":-1},{"dx":-60,"dy":2},{"dx":-88,"dy":14},{"dx":-54,"dy":13},{"dx":-56,"dy":16},{"dx":-72,"dy":31},{"dx":-39,"dy":22},{"dx":-36,"dy":23},{"dx":-43,"dy":36},{"dx":-23,"dy":23},{"dx":-17,"dy":19},{"dx":-12,"dy":20},{"dx":-5,"dy":11},{"dx":-3,"dy":11},{"dx":0,"dy":17},{"dx":1,"dy":14},{"dx":4,"dy":14},{"dx":14,"dy":26},{"dx":12,"dy":18},{"dx":14,"dy":15},{"dx":32,"dy":25},{"dx":21,"dy":13},{"dx":31,"dy":13},{"dx":48,"dy":18},{"dx":38,"dy":10},{"dx":48,"dy":11},{"dx":62,"dy":12},{"dx":34,"dy":5},{"dx":50,"dy":2},{"dx":75,"dy":-9},{"dx":47,"dy":-12},{"dx":41,"dy":-12},{"dx":58,"dy":-16},{"dx":27,"dy":-9},{"dx":28,"dy":-8},{"dx":24,"dy":-11},{"dx":13,"dy":-11},{"dx":20,"dy":-21},{"dx":13,"dy":-20},{"dx":16,"dy":-34},{"dx":6,"dy":-21},{"dx":3,"dy":-16},{"dx":1,"dy":-31},{"dx":-5,"dy":-19},{"dx":-18,"dy":-32},{"dx":-31,"dy":-43},{"dx":-29,"dy":-31},{"dx":-31,"dy":-35},{"dx":-57,"dy":-44},{"dx":-45,"dy":-30},{"dx":-46,"dy":-27},{"dx":-85,"dy":-35},{"dx":-59,"dy":-21},{"dx":-64,"dy":-20},{"dx":-101,"dy":-20},{"dx":-69,"dy":-8},{"dx":-68,"dy":-6},{"dx":-91,"dy":-2},{"dx":-56,"dy":4},{"dx":-51,"dy":7},{"dx":-63,"dy":12},{"dx":-32,"dy":9},{"dx":-20,"dy":7},{"dx":-17,"dy":6},{"dx":-5,"dy":3},{"dx":-3,"dy":2},{"dx":-1,"dy":1},{"dx":0,"dy":1},{"dx":2,"dy":5},{"dx":23,"dy":4},{"dx":28,"dy":2},{"dx":38,"dy":0},{"dx":73,"dy":0},{"dx":54,"dy":-3},{"dx":61,"dy":-2},{"dx":93,"dy":-3},{"dx":65,"dy":0},{"dx":64,"dy":1},{"dx":89,"dy":9},{"dx":57,"dy":8},{"dx":58,"dy":10},{"dx":66,"dy":18},{"dx":34,"dy":13},{"dx":27,"dy":12},{"dx":22,"dy":17},{"dx":12,"dy":16},{"dx":9,"dy":17},{"dx":10,"dy":30},{"dx":2,"dy":23},{"dx":-2,"dy":27},{"dx":-9,"dy":43},{"dx":-6,"dy":25},{"dx":-10,"dy":24},{"dx":-27,"dy":29},{"dx":-27,"dy":19},{"dx":-39,"dy":19},{"dx":-72,"dy":22},{"dx":-57,"dy":9},{"dx":-55,"dy":7},{"dx":-91,"dy":5},{"dx":-59,"dy":4},{"dx":-58,"dy":2},{"dx":-70,"dy":0},{"dx":-38,"dy":-3},{"dx":-29,"dy":-3},{"dx":-39,"dy":-5},{"dx":-19,"dy":-5},{"dx":-13,"dy":-6},{"dx":-17,"dy":-12},{"dx":-8,"dy":-8},{"dx":-6,"dy":-10},{"dx":-4,"dy":-26},{"dx":3,"dy":-19},{"dx":13,"dy":-33},{"dx":36,"dy":-51},{"dx":42,"dy":-44},{"dx":52,"dy":-35},{"dx":97,"dy":-62},{"dx":73,"dy":-34},{"dx":78,"dy":-32},{"dx":112,"dy":-44},{"dx":65,"dy":-17},{"dx":56,"dy":-11},{"dx":71,"dy":-11},{"dx":28,"dy":-2},{"dx":19,"dy":-1},{"dx":20,"dy":1},{"dx":8,"dy":1},{"dx":1,"dy":1},{"dx":4,"dy":2},{"dx":4,"dy":4},{"dx":5,"dy":6},{"dx":7,"dy":10},{"dx":3,"dy":5},{"dx":1,"dy":5},{"dx":-5,"dy":9},{"dx":-14,"dy":9},{"dx":-33,"dy":15},{"dx":-78,"dy":23},{"dx":-74,"dy":16},{"dx":-76,"dy":16},{"dx":-97,"dy":26},{"dx":-56,"dy":16},{"dx":-46,"dy":15},{"dx":-36,"dy":15},{"dx":-34,"dy":22},{"dx":-14,"dy":13},{"dx":-10,"dy":12},{"dx":-9,"dy":17},{"dx":-3,"dy":10},{"dx":-1,"dy":9},{"dx":3,"dy":17},{"dx":4,"dy":11},{"dx":7,"dy":12},{"dx":15,"dy":26},{"dx":14,"dy":20},{"dx":22,"dy":27},{"dx":37,"dy":35},{"dx":30,"dy":24},{"dx":29,"dy":21},{"dx":46,"dy":26},{"dx":22,"dy":13},{"dx":38,"dy":12},{"dx":48,"dy":11},{"dx":30,"dy":0},{"dx":27,"dy":1},{"dx":32,"dy":-4},{"dx":22,"dy":-5},{"dx":25,"dy":-8},{"dx":33,"dy":-18},{"dx":24,"dy":-20},{"dx":17,"dy":-17},{"dx":32,"dy":-39},{"dx":17,"dy":-23},{"dx":14,"dy":-24},{"dx":17,"dy":-37},{"dx":13,"dy":-27},{"dx":9,"dy":-26},{"dx":3,"dy":-31},{"dx":-5,"dy":-31},{"dx":-10,"dy":-26},{"dx":-28,"dy":-49},{"dx":-27,"dy":-28},{"dx":-36,"dy":-30},{"dx":-68,"dy":-49},{"dx":-51,"dy":-25},{"dx":-55,"dy":-23}],"trial_type":"plugin-moving-dots-2","trial_index":16,"plugin_version":"0.0.1","time_elapsed":219953},{"task":"fixation","rt":2717,"stimulus":"<div style=\"font-size:60px;\">+</div>","response":" ","trial_type":"html-keyboard-response","trial_index":17,"plugin_version":"2.1.0","time_elapsed":222671},{"task":"movingdots","control_change":0,"mouse_data":[{"dx":0,"dy":0},{"dx":0,"dy":0},{"dx":0,"dy":0},{"dx":0,"dy":0},{"dx":0,"dy":0},{"dx":0,"dy":0},{"dx":0,"dy":0},{"dx":0,"dy":0},{"dx":0,"dy":0},{"dx":0,"dy":0},{"dx":0,"dy":0},{"dx":0,"dy":0},{"dx":0,"dy":0},{"dx":0,"dy":0},{"dx":0,"dy":0},{"dx":0,"dy":0},{"dx":0,"dy":0},{"dx":0,"dy":0},{"dx":0,"dy":0},{"dx":0,"dy":0},{"dx":0,"dy":0},{"dx":0,"dy":0},{"dx":0,"dy":0},{"dx":0,"dy":0},{"dx":0,"dy":0},{"dx":0,"dy":0},{"dx":0,"dy":0},{"dx":0,"dy":0},{"dx":0,"dy":0},{"dx":0,"dy":0},{"dx":-9,"dy":2},{"dx":-44,"dy":4},{"dx":-79,"dy":10},{"dx":-57,"dy":9},{"dx":-54,"dy":12},{"dx":-73,"dy":26},{"dx":-39,"dy":17},{"dx":-31,"dy":15},{"dx":-40,"dy":25},{"dx":-22,"dy":17},{"dx":-19,"dy":16},{"dx":-15,"dy":13},{"dx":-17,"dy":16},{"dx":-11,"dy":9},{"dx":-15,"dy":14},{"dx":-4,"dy":4},{"dx":-4,"dy":5},{"dx":-3,"dy":4},{"dx":-1,"dy":6},{"dx":1,"dy":6},{"dx":21,"dy":13},{"dx":35,"dy":10},{"dx":56,"dy":10},{"dx":100,"dy":12},{"dx":74,"dy":5},{"dx":70,"dy":5},{"dx":65,"dy":0},{"dx":100,"dy":-4},{"dx":56,"dy":-6},{"dx":53,"dy":-7},{"dx":74,"dy":-14},{"dx":36,"dy":-7},{"dx":34,"dy":-6},{"dx":44,"dy":-7},{"dx":23,"dy":-8},{"dx":23,"dy":-8},{"dx":32,"dy":-17},{"dx":18,"dy":-16},{"dx":16,"dy":-14},{"dx":17,"dy":-23},{"dx":8,"dy":-19},{"dx":4,"dy":-16},{"dx":-1,"dy":-27},{"dx":-10,"dy":-24},{"dx":-15,"dy":-23},{"dx":-41,"dy":-45},{"dx":-38,"dy":-29},{"dx":-50,"dy":-31},{"dx":-91,"dy":-49},{"dx":-67,"dy":-25},{"dx":-70,"dy":-24},{"dx":-106,"dy":-34},{"dx":-79,"dy":-16},{"dx":-76,"dy":-11},{"dx":-113,"dy":-7},{"dx":-62,"dy":-1},{"dx":-55,"dy":3},{"dx":-59,"dy":11},{"dx":-27,"dy":8},{"dx":-15,"dy":6},{"dx":-11,"dy":6},{"dx":-4,"dy":3},{"dx":-2,"dy":4},{"dx":0,"dy":2},{"dx":2,"dy":4},{"dx":17,"dy":5},{"dx":35,"dy":8},{"dx":37,"dy":5},{"dx":46,"dy":6},{"dx":64,"dy":9},{"dx":46,"dy":5},{"dx":50,"dy":5},{"dx":71,"dy":10},{"dx":44,"dy":8},{"dx":42,"dy":10},{"dx":55,"dy":15},{"dx":24,"dy":9},{"dx":29,"dy":13},{"dx":37,"dy":17},{"dx":21,"dy":9},{"dx":18,"dy":11},{"dx":17,"dy":14},{"dx":12,"dy":11},{"dx":10,"dy":12},{"dx":13,"dy":18},{"dx":9,"dy":13},{"dx":7,"dy":18},{"dx":14,"dy":27},{"dx":7,"dy":18},{"dx":4,"dy":16},{"dx":1,"dy":14},{"dx":-1,"dy":24},{"dx":-6,"dy":16},{"dx":-9,"dy":13},{"dx":-23,"dy":21},{"dx":-24,"dy":15},{"dx":-40,"dy":15},{"dx":-76,"dy":21},{"dx":-54,"dy":15},{"dx":-50,"dy":12},{"dx":-83,"dy":19},{"dx":-57,"dy":8},{"dx":-60,"dy":8},{"dx":-78,"dy":6},{"dx":-38,"dy":2},{"dx":-37,"dy":2},{"dx":-33,"dy":0},{"dx":-19,"dy":0},{"dx":-14,"dy":-2},{"dx":-14,"dy":-7},{"dx":-7,"dy":-6},{"dx":-5,"dy":-10},{"dx":-4,"dy":-36},{"dx":5,"dy":-34},{"dx":15,"dy":-53},{"dx":44,"dy":-83},{"dx":34,"dy":-44},{"dx":49,"dy":-48},{"dx":79,"dy":-57},{"dx":59,"dy":-34},{"dx":65,"dy":-32},{"dx":105,"dy":-31},{"dx":74,"dy":-14},{"dx":59,"dy":-12},{"dx":90,"dy":-8},{"dx":42,"dy":-1},{"dx":30,"dy":1},{"dx":26,"dy":4},{"dx":11,"dy":3},{"dx":5,"dy":2},{"dx":12,"dy":6},{"dx":4,"dy":4},{"dx":5,"dy":5},{"dx":9,"dy":13},{"dx":5,"dy":8},{"dx":5,"dy":10},{"dx":7,"dy":16},{"dx":4,"dy":14},{"dx":2,"dy":15},{"dx":-2,"dy":35},{"dx":-10,"dy":30},{"dx":-18,"dy":38},{"dx":-37,"dy":54},{"dx":-32,"dy":41},{"dx":-34,"dy":35},{"dx":-58,"dy":49},{"dx":-41,"dy":24},{"dx":-52,"dy":21},{"dx":-76,"dy":20},{"dx":-49,"dy":9},{"dx":-52,"dy":5},{"dx":-77,"dy":-1},{"dx":-47,"dy":-5},{"dx":-48,"dy":-10},{"dx":-53,"dy":-19},{"dx":-31,"dy":-21},{"dx":-22,"dy":-18},{"dx":-25,"dy":-39},{"dx":-9,"dy":-28},{"dx":-2,"dy":-38},{"dx":17,"dy":-80},{"dx":27,"dy":-57},{"dx":34,"dy":-54},{"dx":57,"dy":-68},{"dx":38,"dy":-37},{"dx":38,"dy":-27},{"dx":53,"dy":-25},{"dx":37,"dy":-11},{"dx":41,"dy":-5},{"dx":65,"dy":2},{"dx":41,"dy":8},{"dx":55,"dy":13},{"dx":73,"dy":21},{"dx":47,"dy":18},{"dx":42,"dy":17},{"dx":61,"dy":23},{"dx":36,"dy":16},{"dx":31,"dy":15},{"dx":32,"dy":20},{"dx":16,"dy":9},{"dx":10,"dy":8},{"dx":9,"dy":9},{"dx":4,"dy":4},{"dx":3,"dy":4},{"dx":2,"dy":4},{"dx":2,"dy":7},{"dx":0,"dy":0},{"dx":-11,"dy":13},{"dx":-19,"dy":8},{"dx":-34,"dy":14},{"dx":-74,"dy":25},{"dx":-60,"dy":16},{"dx":-60,"dy":15},{"dx":-93,"dy":34},{"dx":-60,"dy":29},{"dx":-53,"dy":32},{"dx":-59,"dy":44},{"dx":-30,"dy":29},{"dx":-22,"dy":23},{"dx":-14,"dy":22},{"dx":-12,"dy":20},{"dx":-3,"dy":13},{"dx":-1,"dy":14},{"dx":10,"dy":23},{"dx":23,"dy":20},{"dx":31,"dy":21},{"dx":62,"dy":29},{"dx":57,"dy":15},{"dx":57,"dy":12},{"dx":85,"dy":6},{"dx":52,"dy":1},{"dx":49,"dy":-5},{"dx":73,"dy":-22},{"dx":48,"dy":-24},{"dx":41,"dy":-24},{"dx":66,"dy":-49},{"dx":32,"dy":-27},{"dx":27,"dy":-28},{"dx":25,"dy":-37},{"dx":10,"dy":-18},{"dx":5,"dy":-18},{"dx":2,"dy":-27},{"dx":-2,"dy":-19},{"dx":-7,"dy":-28},{"dx":-26,"dy":-39},{"dx":-25,"dy":-29},{"dx":-27,"dy":-27},{"dx":-46,"dy":-40},{"dx":-40,"dy":-32},{"dx":-37,"dy":-23},{"dx":-69,"dy":-36},{"dx":-47,"dy":-26},{"dx":-49,"dy":-19},{"dx":-71,"dy":-18},{"dx":-57,"dy":-10},{"dx":-53,"dy":-5},{"dx":-71,"dy":-2},{"dx":-38,"dy":1},{"dx":-41,"dy":3},{"dx":-56,"dy":7},{"dx":-31,"dy":7},{"dx":-26,"dy":8},{"dx":-29,"dy":13},{"dx":-14,"dy":9},{"dx":-15,"dy":10},{"dx":-19,"dy":16},{"dx":-13,"dy":12},{"dx":-12,"dy":13},{"dx":-15,"dy":18},{"dx":-6,"dy":13},{"dx":-7,"dy":14},{"dx":-8,"dy":23},{"dx":-3,"dy":15},{"dx":-1,"dy":18},{"dx":3,"dy":26},{"dx":5,"dy":20},{"dx":9,"dy":24},{"dx":23,"dy":38},{"dx":18,"dy":24},{"dx":23,"dy":20},{"dx":41,"dy":29},{"dx":40,"dy":23},{"dx":36,"dy":17},{"dx":71,"dy":25},{"dx":53,"dy":11},{"dx":56,"dy":10},{"dx":76,"dy":8},{"dx":55,"dy":2},{"dx":54,"dy":0},{"dx":71,"dy":-6},{"dx":54,"dy":-11},{"dx":51,"dy":-17},{"dx":78,"dy":-39},{"dx":49,"dy":-25},{"dx":50,"dy":-28},{"dx":54,"dy":-38},{"dx":31,"dy":-20},{"dx":17,"dy":-13},{"dx":14,"dy":-17},{"dx":3,"dy":-6},{"dx":1,"dy":-6},{"dx":-5,"dy":-13},{"dx":-12,"dy":-9},{"dx":-19,"dy":-16},{"dx":-44,"dy":-21},{"dx":-33,"dy":-13},{"dx":-43,"dy":-15},{"dx":-69,"dy":-29},{"dx":-47,"dy":-22},{"dx":-51,"dy":-17},{"dx":-82,"dy":-29},{"dx":-64,"dy":-27},{"dx":-66,"dy":-23},{"dx":-100,"dy":-28},{"dx":-61,"dy":-15},{"dx":-57,"dy":-16},{"dx":-81,"dy":-18},{"dx":-44,"dy":-8},{"dx":-32,"dy":-4},{"dx":-31,"dy":-1},{"dx":-11,"dy":0},{"dx":-5,"dy":0},{"dx":-1,"dy":0},{"dx":-1,"dy":0},{"dx":0,"dy":0},{"dx":24,"dy":3},{"dx":37,"dy":3},{"dx":47,"dy":4},{"dx":59,"dy":7},{"dx":92,"dy":14},{"dx":64,"dy":9},{"dx":95,"dy":20},{"dx":67,"dy":15},{"dx":56,"dy":14},{"dx":64,"dy":19},{"dx":33,"dy":10},{"dx":25,"dy":10},{"dx":33,"dy":15},{"dx":13,"dy":9},{"dx":10,"dy":7},{"dx":9,"dy":10},{"dx":3,"dy":8},{"dx":3,"dy":7},{"dx":-2,"dy":15},{"dx":-10,"dy":23},{"dx":-17,"dy":22},{"dx":-40,"dy":50},{"dx":-39,"dy":41},{"dx":-44,"dy":42},{"dx":-55,"dy":38},{"dx":-103,"dy":58},{"dx":-82,"dy":29},{"dx":-107,"dy":29},{"dx":-64,"dy":15},{"dx":-67,"dy":11},{"dx":-55,"dy":9},{"dx":-64,"dy":8},{"dx":-32,"dy":2},{"dx":-31,"dy":0},{"dx":-29,"dy":-1},{"dx":-12,"dy":-2},{"dx":-15,"dy":-11},{"dx":-8,"dy":-8},{"dx":-5,"dy":-11},{"dx":-2,"dy":-16},{"dx":1,"dy":-19},{"dx":6,"dy":-15},{"dx":16,"dy":-33},{"dx":17,"dy":-22},{"dx":27,"dy":-29},{"dx":49,"dy":-42},{"dx":39,"dy":-25},{"dx":53,"dy":-32},{"dx":78,"dy":-40},{"dx":58,"dy":-26},{"dx":61,"dy":-33},{"dx":80,"dy":-35},{"dx":56,"dy":-20},{"dx":41,"dy":-16},{"dx":37,"dy":-14},{"dx":42,"dy":-16},{"dx":20,"dy":-5},{"dx":17,"dy":-1},{"dx":27,"dy":-1},{"dx":13,"dy":0},{"dx":15,"dy":3},{"dx":20,"dy":8},{"dx":14,"dy":7},{"dx":18,"dy":11},{"dx":27,"dy":18},{"dx":22,"dy":17},{"dx":22,"dy":20},{"dx":25,"dy":29},{"dx":17,"dy":26},{"dx":13,"dy":24},{"dx":8,"dy":32},{"dx":1,"dy":17},{"dx":-1,"dy":16},{"dx":-7,"dy":24},{"dx":-8,"dy":15},{"dx":-11,"dy":14},{"dx":-31,"dy":24},{"dx":-22,"dy":16},{"dx":-27,"dy":16},{"dx":-41,"dy":22},{"dx":-35,"dy":12},{"dx":-42,"dy":13},{"dx":-76,"dy":10},{"dx":-45,"dy":3},{"dx":-57,"dy":1},{"dx":-65,"dy":0},{"dx":-37,"dy":-2},{"dx":-42,"dy":-3},{"dx":-63,"dy":-1},{"dx":-43,"dy":0},{"dx":-35,"dy":0},{"dx":-46,"dy":0},{"dx":-19,"dy":-1},{"dx":-18,"dy":-2},{"dx":-21,"dy":-6},{"dx":-11,"dy":-5},{"dx":-10,"dy":-4},{"dx":-7,"dy":-4},{"dx":-4,"dy":-3},{"dx":0,"dy":0},{"dx":-1,"dy":0},{"dx":0,"dy":-1},{"dx":0,"dy":0},{"dx":10,"dy":3},{"dx":15,"dy":5},{"dx":17,"dy":9},{"dx":27,"dy":11},{"dx":25,"dy":10},{"dx":20,"dy":6},{"dx":43,"dy":9},{"dx":26,"dy":3},{"dx":26,"dy":3},{"dx":31,"dy":1},{"dx":21,"dy":-2},{"dx":23,"dy":-6},{"dx":50,"dy":-21},{"dx":34,"dy":-19},{"dx":34,"dy":-24}],"trial_type":"plugin-moving-dots-2","trial_index":18,"plugin_version":"0.0.1","time_elapsed":230185},{"task":"fixation","rt":3333,"stimulus":"<div style=\"font-size:60px;\">+</div>","response":" ","trial_type":"html-keyboard-response","trial_index":19,"plugin_version":"2.1.0","time_elapsed":233519},{"task":"movingdots","control_change":0,"mouse_data":[{"dx":0,"dy":0},{"dx":0,"dy":0},{"dx":0,"dy":0},{"dx":0,"dy":-1},{"dx":0,"dy":0},{"dx":0,"dy":0},{"dx":0,"dy":0},{"dx":0,"dy":0},{"dx":0,"dy":0},{"dx":0,"dy":0},{"dx":0,"dy":0},{"dx":0,"dy":0},{"dx":0,"dy":0},{"dx":0,"dy":0},{"dx":0,"dy":0},{"dx":0,"dy":0},{"dx":0,"dy":0},{"dx":0,"dy":0},{"dx":0,"dy":0},{"dx":0,"dy":0},{"dx":0,"dy":0},{"dx":0,"dy":0},{"dx":0,"dy":0},{"dx":0,"dy":0},{"dx":0,"dy":0},{"dx":0,"dy":0},{"dx":0,"dy":0},{"dx":0,"dy":0},{"dx":0,"dy":0},{"dx":-38,"dy":8},{"dx":-34,"dy":10},{"dx":-38,"dy":11},{"dx":-35,"dy":13},{"dx":-53,"dy":27},{"dx":-32,"dy":18},{"dx":-34,"dy":16},{"dx":-36,"dy":21},{"dx":-18,"dy":13},{"dx":-11,"dy":11},{"dx":-13,"dy":14},{"dx":-4,"dy":5},{"dx":-4,"dy":7},{"dx":-3,"dy":10},{"dx":0,"dy":1},{"dx":1,"dy":6},{"dx":16,"dy":5},{"dx":19,"dy":2},{"dx":62,"dy":5},{"dx":57,"dy":5},{"dx":70,"dy":5},{"dx":106,"dy":4},{"dx":83,"dy":-1},{"dx":79,"dy":-7},{"dx":78,"dy":-12},{"dx":95,"dy":-19},{"dx":41,"dy":-10},{"dx":25,"dy":-5},{"dx":19,"dy":-7},{"dx":8,"dy":-5},{"dx":6,"dy":-6},{"dx":5,"dy":-17},{"dx":0,"dy":-12},{"dx":-4,"dy":-14},{"dx":-13,"dy":-32},{"dx":-14,"dy":-24},{"dx":-18,"dy":-28},{"dx":-34,"dy":-41},{"dx":-36,"dy":-31},{"dx":-43,"dy":-33},{"dx":-74,"dy":-38},{"dx":-48,"dy":-18},{"dx":-47,"dy":-16},{"dx":-63,"dy":-17},{"dx":-39,"dy":-5},{"dx":-43,"dy":-3},{"dx":-66,"dy":0},{"dx":-35,"dy":4},{"dx":-33,"dy":6},{"dx":-32,"dy":6},{"dx":-14,"dy":3},{"dx":-6,"dy":1},{"dx":-6,"dy":2},{"dx":0,"dy":0},{"dx":0,"dy":0},{"dx":0,"dy":1},{"dx":4,"dy":2},{"dx":17,"dy":1},{"dx":33,"dy":2},{"dx":37,"dy":5},{"dx":41,"dy":7},{"dx":71,"dy":17},{"dx":50,"dy":11},{"dx":51,"dy":12},{"dx":75,"dy":21},{"dx":41,"dy":15},{"dx":48,"dy":18},{"dx":61,"dy":33},{"dx":33,"dy":23},{"dx":24,"dy":20},{"dx":31,"dy":35},{"dx":13,"dy":21},{"dx":13,"dy":24},{"dx":13,"dy":34},{"dx":3,"dy":20},{"dx":1,"dy":24},{"dx":-6,"dy":27},{"dx":-9,"dy":24},{"dx":-16,"dy":24},{"dx":-28,"dy":32},{"dx":-32,"dy":29},{"dx":-36,"dy":23},{"dx":-65,"dy":33},{"dx":-38,"dy":16},{"dx":-38,"dy":11},{"dx":-59,"dy":11},{"dx":-45,"dy":3},{"dx":-39,"dy":0},{"dx":-58,"dy":-8},{"dx":-35,"dy":-7},{"dx":-29,"dy":-8},{"dx":-34,"dy":-10},{"dx":-18,"dy":-9},{"dx":-14,"dy":-9},{"dx":-18,"dy":-16},{"dx":-8,"dy":-9},{"dx":-5,"dy":-7},{"dx":-3,"dy":-3},{"dx":0,"dy":-2},{"dx":-1,"dy":-1},{"dx":0,"dy":-2},{"dx":4,"dy":-3},{"dx":16,"dy":-2},{"dx":31,"dy":0},{"dx":30,"dy":1},{"dx":37,"dy":2},{"dx":73,"dy":4},{"dx":57,"dy":1},{"dx":51,"dy":1},{"dx":70,"dy":-2},{"dx":43,"dy":-6},{"dx":48,"dy":-12},{"dx":64,"dy":-28},{"dx":41,"dy":-21},{"dx":34,"dy":-21},{"dx":39,"dy":-32},{"dx":12,"dy":-11},{"dx":10,"dy":-10},{"dx":10,"dy":-18},{"dx":4,"dy":-12},{"dx":0,"dy":-13},{"dx":-5,"dy":-25},{"dx":-7,"dy":-17},{"dx":-8,"dy":-16},{"dx":-24,"dy":-34},{"dx":-19,"dy":-19},{"dx":-24,"dy":-19},{"dx":-62,"dy":-35},{"dx":-51,"dy":-24},{"dx":-51,"dy":-17},{"dx":-81,"dy":-24},{"dx":-52,"dy":-15},{"dx":-50,"dy":-13},{"dx":-62,"dy":-17},{"dx":-39,"dy":-10},{"dx":-35,"dy":-7},{"dx":-28,"dy":-4},{"dx":-35,"dy":-4},{"dx":-15,"dy":-2},{"dx":-11,"dy":0},{"dx":-8,"dy":0},{"dx":-1,"dy":0},{"dx":-1,"dy":0},{"dx":-1,"dy":0},{"dx":4,"dy":0},{"dx":14,"dy":4},{"dx":44,"dy":10},{"dx":43,"dy":9},{"dx":51,"dy":15},{"dx":82,"dy":22},{"dx":55,"dy":16},{"dx":58,"dy":20},{"dx":78,"dy":32},{"dx":44,"dy":19},{"dx":47,"dy":23},{"dx":58,"dy":36},{"dx":25,"dy":20},{"dx":17,"dy":15},{"dx":17,"dy":22},{"dx":7,"dy":13},{"dx":5,"dy":15},{"dx":2,"dy":29},{"dx":-3,"dy":22},{"dx":-7,"dy":26},{"dx":-19,"dy":36},{"dx":-20,"dy":23},{"dx":-36,"dy":27},{"dx":-67,"dy":33},{"dx":-51,"dy":18},{"dx":-56,"dy":16},{"dx":-98,"dy":18},{"dx":-59,"dy":10},{"dx":-56,"dy":7},{"dx":-72,"dy":5},{"dx":-46,"dy":1},{"dx":-34,"dy":0},{"dx":-47,"dy":-6},{"dx":-17,"dy":-5},{"dx":-16,"dy":-9},{"dx":-16,"dy":-16},{"dx":-9,"dy":-20},{"dx":-5,"dy":-23},{"dx":-2,"dy":-46},{"dx":3,"dy":-27},{"dx":8,"dy":-32},{"dx":20,"dy":-47},{"dx":22,"dy":-41},{"dx":30,"dy":-35},{"dx":71,"dy":-66},{"dx":55,"dy":-39},{"dx":63,"dy":-38},{"dx":97,"dy":-47},{"dx":60,"dy":-21},{"dx":60,"dy":-19},{"dx":69,"dy":-21},{"dx":27,"dy":-6},{"dx":17,"dy":-3},{"dx":20,"dy":0},{"dx":7,"dy":1},{"dx":5,"dy":3},{"dx":7,"dy":4},{"dx":8,"dy":8},{"dx":8,"dy":6},{"dx":13,"dy":13},{"dx":10,"dy":9},{"dx":10,"dy":12},{"dx":16,"dy":21},{"dx":10,"dy":19},{"dx":9,"dy":21},{"dx":9,"dy":46},{"dx":1,"dy":30},{"dx":-4,"dy":38},{"dx":-22,"dy":67},{"dx":-23,"dy":44},{"dx":-29,"dy":43},{"dx":-66,"dy":61},{"dx":-48,"dy":29},{"dx":-44,"dy":22},{"dx":-68,"dy":18},{"dx":-47,"dy":4},{"dx":-54,"dy":1},{"dx":-70,"dy":-5},{"dx":-41,"dy":-8},{"dx":-44,"dy":-11},{"dx":-60,"dy":-32},{"dx":-31,"dy":-29},{"dx":-27,"dy":-33},{"dx":-32,"dy":-63},{"dx":-10,"dy":-39},{"dx":-6,"dy":-36},{"dx":-1,"dy":-53},{"dx":7,"dy":-30},{"dx":13,"dy":-35},{"dx":27,"dy":-47},{"dx":26,"dy":-30},{"dx":28,"dy":-30},{"dx":52,"dy":-33},{"dx":38,"dy":-18},{"dx":46,"dy":-17},{"dx":74,"dy":-16},{"dx":50,"dy":-4},{"dx":41,"dy":1},{"dx":58,"dy":7},{"dx":36,"dy":8},{"dx":30,"dy":9},{"dx":44,"dy":17},{"dx":22,"dy":15},{"dx":21,"dy":16},{"dx":26,"dy":22},{"dx":10,"dy":10},{"dx":10,"dy":12},{"dx":11,"dy":18},{"dx":5,"dy":11},{"dx":2,"dy":7},{"dx":2,"dy":15},{"dx":-3,"dy":18},{"dx":-7,"dy":13},{"dx":-9,"dy":11},{"dx":-17,"dy":14},{"dx":-10,"dy":7},{"dx":-9,"dy":5},{"dx":-36,"dy":11},{"dx":-32,"dy":7},{"dx":-39,"dy":11},{"dx":-51,"dy":21},{"dx":-38,"dy":20},{"dx":-48,"dy":22},{"dx":-79,"dy":46},{"dx":-55,"dy":33},{"dx":-44,"dy":29},{"dx":-59,"dy":39},{"dx":-28,"dy":14},{"dx":-27,"dy":9},{"dx":-27,"dy":4},{"dx":-15,"dy":1},{"dx":-12,"dy":0},{"dx":-8,"dy":-2},{"dx":-5,"dy":-3},{"dx":-5,"dy":-3},{"dx":-10,"dy":-14},{"dx":-4,"dy":-9},{"dx":-3,"dy":-12},{"dx":0,"dy":-13},{"dx":3,"dy":-6},{"dx":6,"dy":-4},{"dx":24,"dy":-1},{"dx":29,"dy":4},{"dx":45,"dy":11},{"dx":80,"dy":20},{"dx":64,"dy":12},{"dx":63,"dy":8},{"dx":87,"dy":0},{"dx":55,"dy":-6},{"dx":49,"dy":-8},{"dx":76,"dy":-16},{"dx":36,"dy":-11},{"dx":29,"dy":-9},{"dx":21,"dy":-9},{"dx":12,"dy":-9},{"dx":9,"dy":-11},{"dx":9,"dy":-19},{"dx":4,"dy":-13},{"dx":3,"dy":-19},{"dx":2,"dy":-26},{"dx":-1,"dy":-17},{"dx":-4,"dy":-27},{"dx":-12,"dy":-35},{"dx":-14,"dy":-32},{"dx":-14,"dy":-20},{"dx":-31,"dy":-40},{"dx":-24,"dy":-24},{"dx":-22,"dy":-17},{"dx":-37,"dy":-24},{"dx":-26,"dy":-15},{"dx":-29,"dy":-17},{"dx":-46,"dy":-19},{"dx":-32,"dy":-11},{"dx":-34,"dy":-12},{"dx":-58,"dy":-17},{"dx":-40,"dy":-10},{"dx":-41,"dy":-8},{"dx":-58,"dy":-7},{"dx":-36,"dy":-2},{"dx":-35,"dy":-2},{"dx":-43,"dy":2},{"dx":-23,"dy":3},{"dx":-16,"dy":3},{"dx":-17,"dy":7},{"dx":-6,"dy":2},{"dx":-7,"dy":4},{"dx":-8,"dy":7},{"dx":-3,"dy":3},{"dx":0,"dy":1},{"dx":0,"dy":12},{"dx":5,"dy":6},{"dx":9,"dy":8},{"dx":38,"dy":18},{"dx":40,"dy":16},{"dx":52,"dy":21},{"dx":79,"dy":38},{"dx":55,"dy":24},{"dx":48,"dy":25},{"dx":70,"dy":41},{"dx":48,"dy":25},{"dx":44,"dy":25},{"dx":61,"dy":37},{"dx":40,"dy":23},{"dx":28,"dy":18},{"dx":42,"dy":27},{"dx":20,"dy":14},{"dx":10,"dy":9},{"dx":9,"dy":9},{"dx":5,"dy":7},{"dx":2,"dy":4},{"dx":-3,"dy":11},{"dx":-8,"dy":7},{"dx":-19,"dy":7},{"dx":-56,"dy":17},{"dx":-48,"dy":13},{"dx":-56,"dy":13},{"dx":-91,"dy":15},{"dx":-58,"dy":7},{"dx":-58,"dy":5},{"dx":-78,"dy":4},{"dx":-48,"dy":3},{"dx":-46,"dy":2},{"dx":-53,"dy":2},{"dx":-25,"dy":0},{"dx":-21,"dy":-1},{"dx":-22,"dy":-3},{"dx":-12,"dy":-4},{"dx":-11,"dy":-6},{"dx":-9,"dy":-6},{"dx":-9,"dy":-11},{"dx":-4,"dy":-10},{"dx":-3,"dy":-18},{"dx":3,"dy":-27},{"dx":8,"dy":-34},{"dx":9,"dy":-31},{"dx":22,"dy":-58},{"dx":19,"dy":-34},{"dx":27,"dy":-37},{"dx":49,"dy":-48},{"dx":39,"dy":-32},{"dx":34,"dy":-25},{"dx":46,"dy":-26},{"dx":34,"dy":-14},{"dx":27,"dy":-10},{"dx":39,"dy":-10},{"dx":23,"dy":-3},{"dx":24,"dy":-1},{"dx":36,"dy":6},{"dx":29,"dy":7},{"dx":29,"dy":8},{"dx":34,"dy":12},{"dx":16,"dy":7},{"dx":16,"dy":6},{"dx":19,"dy":8},{"dx":9,"dy":6},{"dx":8,"dy":5},{"dx":11,"dy":6},{"dx":5,"dy":3},{"dx":4,"dy":2},{"dx":4,"dy":4},{"dx":0,"dy":0},{"dx":0,"dy":0},{"dx":1,"dy":1},{"dx":0,"dy":0},{"dx":0,"dy":0},{"dx":0,"dy":0},{"dx":0,"dy":0},{"dx":-3,"dy":-2},{"dx":-11,"dy":-8},{"dx":-10,"dy":-11},{"dx":-10,"dy":-11},{"dx":-15,"dy":-13},{"dx":-11,"dy":-9},{"dx":-11,"dy":-10},{"dx":-29,"dy":-19},{"dx":-20,"dy":-11},{"dx":-41,"dy":-16},{"dx":-25,"dy":-8},{"dx":-29,"dy":-8},{"dx":-33,"dy":-6}],"trial_type":"plugin-moving-dots-2","trial_index":20,"plugin_version":"0.0.1","time_elapsed":241035},{"task":"fixation","rt":2050,"stimulus":"<div style=\"font-size:60px;\">+</div>","response":" ","trial_type":"html-keyboard-response","trial_index":21,"plugin_version":"2.1.0","time_elapsed":243087},{"task":"movingdots","control_change":0,"mouse_data":[{"dx":0,"dy":0},{"dx":0,"dy":0},{"dx":0,"dy":0},{"dx":0,"dy":0},{"dx":0,"dy":0},{"dx":0,"dy":0},{"dx":0,"dy":0},{"dx":0,"dy":0},{"dx":0,"dy":0},{"dx":0,"dy":0},{"dx":0,"dy":0},{"dx":0,"dy":0},{"dx":0,"dy":0},{"dx":0,"dy":0},{"dx":0,"dy":0},{"dx":0,"dy":0},{"dx":0,"dy":0},{"dx":0,"dy":0},{"dx":0,"dy":0},{"dx":0,"dy":0},{"dx":0,"dy":0},{"dx":0,"dy":0},{"dx":0,"dy":0},{"dx":0,"dy":0},{"dx":0,"dy":0},{"dx":0,"dy":0},{"dx":0,"dy":0},{"dx":0,"dy":0},{"dx":0,"dy":0},{"dx":0,"dy":0},{"dx":-22,"dy":2},{"dx":-20,"dy":3},{"dx":-32,"dy":6},{"dx":-63,"dy":17},{"dx":-42,"dy":13},{"dx":-48,"dy":16},{"dx":-55,"dy":26},{"dx":-29,"dy":13},{"dx":-23,"dy":10},{"dx":-27,"dy":9},{"dx":-11,"dy":3},{"dx":-6,"dy":1},{"dx":-13,"dy":4},{"dx":-4,"dy":1},{"dx":-1,"dy":0},{"dx":-1,"dy":1},{"dx":-1,"dy":0},{"dx":0,"dy":0},{"dx":0,"dy":0},{"dx":4,"dy":2},{"dx":13,"dy":3},{"dx":44,"dy":12},{"dx":44,"dy":14},{"dx":42,"dy":16},{"dx":62,"dy":26},{"dx":44,"dy":21},{"dx":33,"dy":15},{"dx":50,"dy":25},{"dx":25,"dy":14},{"dx":27,"dy":11},{"dx":37,"dy":11},{"dx":24,"dy":3},{"dx":24,"dy":2},{"dx":40,"dy":-3},{"dx":23,"dy":-7},{"dx":31,"dy":-10},{"dx":49,"dy":-26},{"dx":34,"dy":-22},{"dx":24,"dy":-19},{"dx":35,"dy":-34},{"dx":12,"dy":-21},{"dx":5,"dy":-14},{"dx":1,"dy":-36},{"dx":-7,"dy":-20},{"dx":-17,"dy":-30},{"dx":-28,"dy":-39},{"dx":-29,"dy":-26},{"dx":-41,"dy":-33},{"dx":-75,"dy":-42},{"dx":-59,"dy":-26},{"dx":-58,"dy":-23},{"dx":-85,"dy":-27},{"dx":-59,"dy":-10},{"dx":-55,"dy":-7},{"dx":-71,"dy":-4},{"dx":-39,"dy":0},{"dx":-27,"dy":1},{"dx":-32,"dy":4},{"dx":-16,"dy":4},{"dx":-14,"dy":5},{"dx":-19,"dy":6},{"dx":-5,"dy":2},{"dx":-6,"dy":3},{"dx":-5,"dy":3},{"dx":0,"dy":0},{"dx":-1,"dy":1},{"dx":0,"dy":0},{"dx":11,"dy":1},{"dx":26,"dy":-1},{"dx":78,"dy":-7},{"dx":65,"dy":-4},{"dx":67,"dy":-4},{"dx":100,"dy":-6},{"dx":65,"dy":-1},{"dx":60,"dy":0},{"dx":89,"dy":11},{"dx":46,"dy":8},{"dx":33,"dy":6},{"dx":35,"dy":12},{"dx":22,"dy":11},{"dx":12,"dy":10},{"dx":17,"dy":18},{"dx":8,"dy":12},{"dx":7,"dy":12},{"dx":7,"dy":21},{"dx":1,"dy":14},{"dx":-2,"dy":16},{"dx":-5,"dy":22},{"dx":-10,"dy":33},{"dx":-9,"dy":30},{"dx":-11,"dy":23},{"dx":-31,"dy":39},{"dx":-23,"dy":21},{"dx":-26,"dy":19},{"dx":-41,"dy":22},{"dx":-35,"dy":12},{"dx":-37,"dy":9},{"dx":-67,"dy":5},{"dx":-52,"dy":0},{"dx":-61,"dy":-2},{"dx":-97,"dy":-7},{"dx":-67,"dy":-5},{"dx":-66,"dy":-6},{"dx":-80,"dy":-8},{"dx":-34,"dy":-4},{"dx":-31,"dy":-3},{"dx":-23,"dy":-2},{"dx":-5,"dy":-1},{"dx":-6,"dy":-1},{"dx":-1,"dy":-1},{"dx":-1,"dy":0},{"dx":0,"dy":0},{"dx":20,"dy":3},{"dx":17,"dy":4},{"dx":29,"dy":6},{"dx":50,"dy":13},{"dx":43,"dy":9},{"dx":49,"dy":8},{"dx":80,"dy":9},{"dx":51,"dy":1},{"dx":49,"dy":-1},{"dx":83,"dy":-16},{"dx":59,"dy":-19},{"dx":62,"dy":-23},{"dx":84,"dy":-43},{"dx":37,"dy":-22},{"dx":43,"dy":-22},{"dx":51,"dy":-30},{"dx":30,"dy":-20},{"dx":22,"dy":-17},{"dx":23,"dy":-32},{"dx":7,"dy":-17},{"dx":1,"dy":-18},{"dx":-10,"dy":-40},{"dx":-19,"dy":-24},{"dx":-36,"dy":-34},{"dx":-51,"dy":-39},{"dx":-42,"dy":-25},{"dx":-46,"dy":-24},{"dx":-84,"dy":-30},{"dx":-63,"dy":-13},{"dx":-57,"dy":-9},{"dx":-80,"dy":-10},{"dx":-43,"dy":-3},{"dx":-45,"dy":-1},{"dx":-59,"dy":2},{"dx":-29,"dy":3},{"dx":-28,"dy":4},{"dx":-28,"dy":7},{"dx":-14,"dy":6},{"dx":-12,"dy":5},{"dx":-11,"dy":8},{"dx":-5,"dy":3},{"dx":-3,"dy":3},{"dx":-3,"dy":3},{"dx":0,"dy":1},{"dx":1,"dy":5},{"dx":13,"dy":5},{"dx":12,"dy":5},{"dx":22,"dy":5},{"dx":43,"dy":9},{"dx":39,"dy":10},{"dx":37,"dy":10},{"dx":59,"dy":13},{"dx":43,"dy":7},{"dx":44,"dy":11},{"dx":67,"dy":16},{"dx":48,"dy":10},{"dx":47,"dy":11},{"dx":60,"dy":17},{"dx":36,"dy":11},{"dx":34,"dy":12},{"dx":44,"dy":19},{"dx":28,"dy":12},{"dx":23,"dy":12},{"dx":25,"dy":15},{"dx":14,"dy":8},{"dx":10,"dy":8},{"dx":11,"dy":13},{"dx":2,"dy":4},{"dx":4,"dy":8},{"dx":1,"dy":19},{"dx":-3,"dy":13},{"dx":-9,"dy":16},{"dx":-26,"dy":28},{"dx":-30,"dy":23},{"dx":-38,"dy":23},{"dx":-61,"dy":33},{"dx":-43,"dy":19},{"dx":-42,"dy":20},{"dx":-70,"dy":22},{"dx":-50,"dy":13},{"dx":-41,"dy":10},{"dx":-66,"dy":9},{"dx":-46,"dy":2},{"dx":-45,"dy":0},{"dx":-46,"dy":-1},{"dx":-70,"dy":-4},{"dx":-46,"dy":-3},{"dx":-37,"dy":-3},{"dx":-50,"dy":-6},{"dx":-29,"dy":-6},{"dx":-26,"dy":-12},{"dx":-27,"dy":-17},{"dx":-15,"dy":-13},{"dx":-13,"dy":-15},{"dx":-17,"dy":-30},{"dx":-6,"dy":-17},{"dx":-3,"dy":-20},{"dx":2,"dy":-31},{"dx":9,"dy":-29},{"dx":13,"dy":-30},{"dx":19,"dy":-34},{"dx":15,"dy":-29},{"dx":17,"dy":-20},{"dx":36,"dy":-38},{"dx":33,"dy":-26},{"dx":33,"dy":-18},{"dx":62,"dy":-31},{"dx":45,"dy":-21},{"dx":42,"dy":-14},{"dx":70,"dy":-15},{"dx":49,"dy":-7},{"dx":51,"dy":-3},{"dx":77,"dy":-1},{"dx":48,"dy":1},{"dx":51,"dy":4},{"dx":66,"dy":8},{"dx":33,"dy":6},{"dx":39,"dy":9},{"dx":45,"dy":12},{"dx":25,"dy":8},{"dx":17,"dy":5},{"dx":21,"dy":9},{"dx":11,"dy":7},{"dx":11,"dy":10},{"dx":18,"dy":18},{"dx":11,"dy":13},{"dx":9,"dy":12},{"dx":12,"dy":27},{"dx":5,"dy":16},{"dx":2,"dy":16},{"dx":1,"dy":24},{"dx":-1,"dy":17},{"dx":-3,"dy":20},{"dx":-10,"dy":34},{"dx":-8,"dy":25},{"dx":-4,"dy":22},{"dx":-6,"dy":27},{"dx":-1,"dy":17},{"dx":0,"dy":13},{"dx":3,"dy":12},{"dx":4,"dy":9},{"dx":2,"dy":4},{"dx":12,"dy":3},{"dx":11,"dy":-1},{"dx":14,"dy":-5},{"dx":28,"dy":-20},{"dx":25,"dy":-24},{"dx":17,"dy":-21},{"dx":18,"dy":-43},{"dx":3,"dy":-20},{"dx":-2,"dy":-27},{"dx":-18,"dy":-47},{"dx":-26,"dy":-40},{"dx":-28,"dy":-36},{"dx":-69,"dy":-72},{"dx":-58,"dy":-44},{"dx":-62,"dy":-42},{"dx":-90,"dy":-43},{"dx":-67,"dy":-24},{"dx":-70,"dy":-20},{"dx":-111,"dy":-28},{"dx":-76,"dy":-11},{"dx":-68,"dy":-7},{"dx":-87,"dy":-4},{"dx":-43,"dy":0},{"dx":-38,"dy":2},{"dx":-50,"dy":7},{"dx":-23,"dy":6},{"dx":-17,"dy":7},{"dx":-25,"dy":13},{"dx":-13,"dy":9},{"dx":-13,"dy":10},{"dx":-15,"dy":15},{"dx":-9,"dy":11},{"dx":-6,"dy":9},{"dx":-7,"dy":16},{"dx":-5,"dy":13},{"dx":-4,"dy":14},{"dx":-5,"dy":19},{"dx":-2,"dy":15},{"dx":-2,"dy":13},{"dx":-1,"dy":19},{"dx":0,"dy":16},{"dx":0,"dy":16},{"dx":2,"dy":23},{"dx":3,"dy":21},{"dx":5,"dy":19},{"dx":18,"dy":40},{"dx":15,"dy":26},{"dx":18,"dy":26},{"dx":38,"dy":48},{"dx":29,"dy":30},{"dx":43,"dy":38},{"dx":78,"dy":48},{"dx":55,"dy":26},{"dx":57,"dy":15},{"dx":89,"dy":17},{"dx":56,"dy":9},{"dx":60,"dy":7},{"dx":74,"dy":4},{"dx":37,"dy":-2},{"dx":45,"dy":-9},{"dx":59,"dy":-28},{"dx":34,"dy":-20},{"dx":35,"dy":-29},{"dx":31,"dy":-26},{"dx":14,"dy":-11},{"dx":10,"dy":-9},{"dx":14,"dy":-13},{"dx":2,"dy":-5},{"dx":7,"dy":-7},{"dx":11,"dy":-13},{"dx":7,"dy":-8},{"dx":7,"dy":-10},{"dx":8,"dy":-18},{"dx":2,"dy":-9},{"dx":0,"dy":-11},{"dx":-3,"dy":-23},{"dx":-4,"dy":-14},{"dx":-6,"dy":-15},{"dx":-13,"dy":-29},{"dx":-15,"dy":-19},{"dx":-20,"dy":-23},{"dx":-38,"dy":-36},{"dx":-31,"dy":-21},{"dx":-30,"dy":-21},{"dx":-66,"dy":-39},{"dx":-54,"dy":-21},{"dx":-53,"dy":-18},{"dx":-78,"dy":-20},{"dx":-58,"dy":-8},{"dx":-61,"dy":-5},{"dx":-88,"dy":1},{"dx":-60,"dy":7},{"dx":-64,"dy":9},{"dx":-85,"dy":22},{"dx":-50,"dy":18},{"dx":-39,"dy":18},{"dx":-54,"dy":26},{"dx":-24,"dy":14},{"dx":-20,"dy":13},{"dx":-19,"dy":15},{"dx":-4,"dy":5},{"dx":-5,"dy":6},{"dx":-2,"dy":4},{"dx":-2,"dy":5},{"dx":0,"dy":1},{"dx":12,"dy":6},{"dx":17,"dy":1},{"dx":33,"dy":1},{"dx":64,"dy":-5},{"dx":48,"dy":-6},{"dx":54,"dy":-6},{"dx":89,"dy":-14},{"dx":68,"dy":-10},{"dx":74,"dy":-7},{"dx":116,"dy":-6},{"dx":67,"dy":0},{"dx":62,"dy":1},{"dx":78,"dy":8},{"dx":41,"dy":7},{"dx":36,"dy":9},{"dx":37,"dy":12},{"dx":17,"dy":8},{"dx":13,"dy":8},{"dx":17,"dy":11},{"dx":11,"dy":6},{"dx":4,"dy":3},{"dx":9,"dy":9},{"dx":5,"dy":5},{"dx":3,"dy":4},{"dx":4,"dy":6},{"dx":3,"dy":6},{"dx":2,"dy":3},{"dx":4,"dy":9},{"dx":1,"dy":0},{"dx":3,"dy":6},{"dx":3,"dy":11},{"dx":2,"dy":7},{"dx":0,"dy":8},{"dx":0,"dy":8},{"dx":-2,"dy":9},{"dx":-3,"dy":8},{"dx":-5,"dy":16},{"dx":-6,"dy":14},{"dx":-4,"dy":10},{"dx":-3,"dy":11},{"dx":-6,"dy":16},{"dx":-5,"dy":11},{"dx":-4,"dy":9},{"dx":-8,"dy":14},{"dx":-7,"dy":8},{"dx":-8,"dy":8},{"dx":-16,"dy":10},{"dx":-14,"dy":6},{"dx":-12,"dy":6},{"dx":-16,"dy":8},{"dx":-13,"dy":5},{"dx":-14,"dy":6},{"dx":-18,"dy":8},{"dx":-17,"dy":6},{"dx":-24,"dy":9},{"dx":-39,"dy":7},{"dx":-30,"dy":4},{"dx":-32,"dy":3},{"dx":-53,"dy":4},{"dx":-32,"dy":1},{"dx":-36,"dy":1},{"dx":-42,"dy":1},{"dx":-23,"dy":1},{"dx":-19,"dy":1}],"trial_type":"plugin-moving-dots-2","trial_index":22,"plugin_version":"0.0.1","time_elapsed":250602},{"task":"fixation","rt":2677,"stimulus":"<div style=\"font-size:60px;\">+</div>","response":" ","trial_type":"html-keyboard-response","trial_index":23,"plugin_version":"2.1.0","time_elapsed":253279},{"task":"movingdots","control_change":0,"mouse_data":[{"dx":0,"dy":0},{"dx":0,"dy":0},{"dx":0,"dy":0},{"dx":0,"dy":0},{"dx":0,"dy":0},{"dx":0,"dy":0},{"dx":0,"dy":0},{"dx":0,"dy":0},{"dx":0,"dy":0},{"dx":0,"dy":0},{"dx":0,"dy":0},{"dx":0,"dy":0},{"dx":0,"dy":0},{"dx":0,"dy":0},{"dx":0,"dy":0},{"dx":0,"dy":0},{"dx":0,"dy":0},{"dx":0,"dy":0},{"dx":0,"dy":0},{"dx":0,"dy":0},{"dx":0,"dy":0},{"dx":0,"dy":0},{"dx":0,"dy":0},{"dx":0,"dy":0},{"dx":0,"dy":0},{"dx":0,"dy":0},{"dx":0,"dy":0},{"dx":0,"dy":0},{"dx":0,"dy":0},{"dx":0,"dy":0},{"dx":0,"dy":0},{"dx":-11,"dy":0},{"dx":-26,"dy":4},{"dx":-23,"dy":7},{"dx":-31,"dy":9},{"dx":-48,"dy":20},{"dx":-32,"dy":16},{"dx":-28,"dy":14},{"dx":-33,"dy":13},{"dx":-14,"dy":6},{"dx":-14,"dy":6},{"dx":-12,"dy":6},{"dx":-16,"dy":8},{"dx":-10,"dy":6},{"dx":-10,"dy":6},{"dx":-12,"dy":8},{"dx":-9,"dy":4},{"dx":-8,"dy":7},{"dx":-14,"dy":11},{"dx":-5,"dy":4},{"dx":-5,"dy":5},{"dx":-2,"dy":5},{"dx":0,"dy":1},{"dx":0,"dy":2},{"dx":4,"dy":7},{"dx":5,"dy":2},{"dx":6,"dy":3},{"dx":19,"dy":5},{"dx":14,"dy":2},{"dx":16,"dy":1},{"dx":39,"dy":1},{"dx":41,"dy":-2},{"dx":43,"dy":-1},{"dx":85,"dy":-2},{"dx":56,"dy":-5},{"dx":61,"dy":-6},{"dx":96,"dy":-18},{"dx":67,"dy":-20},{"dx":55,"dy":-17},{"dx":69,"dy":-24},{"dx":37,"dy":-14},{"dx":30,"dy":-15},{"dx":32,"dy":-23},{"dx":9,"dy":-8},{"dx":5,"dy":-9},{"dx":0,"dy":-15},{"dx":-4,"dy":-13},{"dx":-8,"dy":-12},{"dx":-13,"dy":-15},{"dx":-10,"dy":-12},{"dx":-13,"dy":-17},{"dx":-29,"dy":-26},{"dx":-21,"dy":-19},{"dx":-21,"dy":-15},{"dx":-37,"dy":-23},{"dx":-32,"dy":-10},{"dx":-30,"dy":-12},{"dx":-49,"dy":-13},{"dx":-26,"dy":-7},{"dx":-24,"dy":-2},{"dx":-30,"dy":-1},{"dx":-19,"dy":0},{"dx":-17,"dy":1},{"dx":-28,"dy":4},{"dx":-17,"dy":4},{"dx":-19,"dy":5},{"dx":-27,"dy":9},{"dx":-20,"dy":9},{"dx":-20,"dy":9},{"dx":-28,"dy":16},{"dx":-22,"dy":12},{"dx":-25,"dy":15},{"dx":-44,"dy":25},{"dx":-28,"dy":19},{"dx":-21,"dy":10},{"dx":-26,"dy":11},{"dx":-14,"dy":8},{"dx":-13,"dy":6},{"dx":-15,"dy":8},{"dx":-4,"dy":4},{"dx":-4,"dy":5},{"dx":-6,"dy":10},{"dx":-1,"dy":0},{"dx":-2,"dy":6},{"dx":-3,"dy":10},{"dx":-1,"dy":6},{"dx":0,"dy":7},{"dx":0,"dy":5},{"dx":0,"dy":6},{"dx":1,"dy":4},{"dx":4,"dy":13},{"dx":5,"dy":8},{"dx":10,"dy":9},{"dx":25,"dy":19},{"dx":27,"dy":18},{"dx":26,"dy":16},{"dx":44,"dy":20},{"dx":31,"dy":12},{"dx":39,"dy":10},{"dx":54,"dy":15},{"dx":32,"dy":7},{"dx":36,"dy":5},{"dx":53,"dy":3},{"dx":42,"dy":-2},{"dx":44,"dy":-7},{"dx":63,"dy":-17},{"dx":39,"dy":-13},{"dx":44,"dy":-22},{"dx":50,"dy":-31},{"dx":38,"dy":-20},{"dx":29,"dy":-20},{"dx":43,"dy":-29},{"dx":14,"dy":-13},{"dx":19,"dy":-14},{"dx":33,"dy":-28},{"dx":13,"dy":-13},{"dx":7,"dy":-10},{"dx":12,"dy":-16},{"dx":3,"dy":-7},{"dx":2,"dy":-9},{"dx":0,"dy":-6},{"dx":-15,"dy":-17},{"dx":-20,"dy":-11},{"dx":-31,"dy":-18},{"dx":-49,"dy":-20},{"dx":-35,"dy":-13},{"dx":-39,"dy":-12},{"dx":-68,"dy":-24},{"dx":-47,"dy":-16},{"dx":-52,"dy":-12},{"dx":-81,"dy":-14},{"dx":-51,"dy":-4},{"dx":-50,"dy":-5},{"dx":-70,"dy":-4},{"dx":-36,"dy":-1},{"dx":-45,"dy":2},{"dx":-21,"dy":2},{"dx":-17,"dy":3},{"dx":-21,"dy":4},{"dx":-11,"dy":5},{"dx":-5,"dy":1},{"dx":-11,"dy":5},{"dx":0,"dy":0},{"dx":-1,"dy":0},{"dx":-1,"dy":0},{"dx":0,"dy":0},{"dx":0,"dy":0},{"dx":12,"dy":-4},{"dx":30,"dy":-8},{"dx":34,"dy":-5},{"dx":53,"dy":-8},{"dx":38,"dy":-2},{"dx":37,"dy":-2},{"dx":59,"dy":2},{"dx":39,"dy":3},{"dx":31,"dy":6},{"dx":51,"dy":11},{"dx":34,"dy":11},{"dx":31,"dy":10},{"dx":41,"dy":13},{"dx":18,"dy":7},{"dx":14,"dy":8},{"dx":19,"dy":10},{"dx":11,"dy":9},{"dx":7,"dy":9},{"dx":10,"dy":12},{"dx":7,"dy":10},{"dx":7,"dy":13},{"dx":7,"dy":13},{"dx":10,"dy":17},{"dx":3,"dy":13},{"dx":3,"dy":14},{"dx":0,"dy":23},{"dx":-4,"dy":16},{"dx":-8,"dy":21},{"dx":-18,"dy":30},{"dx":-18,"dy":26},{"dx":-22,"dy":26},{"dx":-37,"dy":43},{"dx":-31,"dy":27},{"dx":-25,"dy":24},{"dx":-52,"dy":33},{"dx":-30,"dy":17},{"dx":-34,"dy":14},{"dx":-53,"dy":17},{"dx":-36,"dy":7},{"dx":-47,"dy":2},{"dx":-72,"dy":-3},{"dx":-57,"dy":-7},{"dx":-51,"dy":-11},{"dx":-80,"dy":-17},{"dx":-57,"dy":-13},{"dx":-54,"dy":-10},{"dx":-42,"dy":-12},{"dx":-10,"dy":-4},{"dx":-5,"dy":-4},{"dx":0,"dy":-1},{"dx":-1,"dy":-1},{"dx":0,"dy":0},{"dx":0,"dy":-1},{"dx":-1,"dy":-1},{"dx":0,"dy":0},{"dx":0,"dy":0},{"dx":12,"dy":7},{"dx":27,"dy":6},{"dx":42,"dy":10},{"dx":73,"dy":6},{"dx":51,"dy":1},{"dx":54,"dy":-1},{"dx":73,"dy":-5},{"dx":40,"dy":-5},{"dx":65,"dy":-10},{"dx":47,"dy":-11},{"dx":41,"dy":-15},{"dx":42,"dy":-18},{"dx":60,"dy":-30},{"dx":42,"dy":-24},{"dx":45,"dy":-31},{"dx":63,"dy":-37},{"dx":33,"dy":-24},{"dx":35,"dy":-26},{"dx":29,"dy":-26},{"dx":24,"dy":-25},{"dx":19,"dy":-23},{"dx":15,"dy":-25},{"dx":5,"dy":-24},{"dx":0,"dy":-17},{"dx":-10,"dy":-42},{"dx":-18,"dy":-29},{"dx":-37,"dy":-42},{"dx":-37,"dy":-31},{"dx":-49,"dy":-22},{"dx":-55,"dy":-19},{"dx":-77,"dy":-18},{"dx":-48,"dy":-3},{"dx":-67,"dy":3},{"dx":-45,"dy":11},{"dx":-34,"dy":15},{"dx":-33,"dy":16},{"dx":-40,"dy":28},{"dx":-21,"dy":17},{"dx":-22,"dy":21},{"dx":-27,"dy":31},{"dx":-14,"dy":20},{"dx":-12,"dy":23},{"dx":-10,"dy":31},{"dx":-2,"dy":16},{"dx":-1,"dy":16},{"dx":1,"dy":20},{"dx":4,"dy":10},{"dx":5,"dy":10},{"dx":13,"dy":13},{"dx":20,"dy":9},{"dx":23,"dy":7},{"dx":51,"dy":7},{"dx":48,"dy":1},{"dx":49,"dy":0},{"dx":84,"dy":-5},{"dx":51,"dy":-2},{"dx":52,"dy":2},{"dx":68,"dy":9},{"dx":35,"dy":9},{"dx":37,"dy":12},{"dx":30,"dy":20},{"dx":15,"dy":13},{"dx":14,"dy":17},{"dx":13,"dy":31},{"dx":2,"dy":16},{"dx":0,"dy":15},{"dx":-5,"dy":26},{"dx":-11,"dy":17},{"dx":-14,"dy":17},{"dx":-36,"dy":29},{"dx":-24,"dy":14},{"dx":-34,"dy":14},{"dx":-52,"dy":20},{"dx":-37,"dy":10},{"dx":-46,"dy":8},{"dx":-71,"dy":3},{"dx":-43,"dy":-4},{"dx":-43,"dy":-7},{"dx":-64,"dy":-16},{"dx":-38,"dy":-17},{"dx":-39,"dy":-28},{"dx":-43,"dy":-39},{"dx":-26,"dy":-36},{"dx":-17,"dy":-29},{"dx":-17,"dy":-52},{"dx":-3,"dy":-27},{"dx":0,"dy":-29},{"dx":10,"dy":-45},{"dx":19,"dy":-39},{"dx":22,"dy":-30},{"dx":57,"dy":-47},{"dx":45,"dy":-30},{"dx":47,"dy":-22},{"dx":72,"dy":-23},{"dx":48,"dy":-10},{"dx":41,"dy":-4},{"dx":43,"dy":-1},{"dx":63,"dy":10},{"dx":39,"dy":10},{"dx":40,"dy":16},{"dx":55,"dy":30},{"dx":28,"dy":20},{"dx":23,"dy":17},{"dx":34,"dy":38},{"dx":13,"dy":22},{"dx":7,"dy":26},{"dx":3,"dy":32},{"dx":0,"dy":22},{"dx":-6,"dy":25},{"dx":-33,"dy":36},{"dx":-36,"dy":25},{"dx":-41,"dy":25},{"dx":-82,"dy":33},{"dx":-62,"dy":15},{"dx":-59,"dy":14},{"dx":-92,"dy":14},{"dx":-63,"dy":7},{"dx":-58,"dy":5},{"dx":-68,"dy":2},{"dx":-38,"dy":-1},{"dx":-29,"dy":-5},{"dx":-39,"dy":-9},{"dx":-19,"dy":-8},{"dx":-15,"dy":-7},{"dx":-19,"dy":-13},{"dx":-7,"dy":-9},{"dx":-4,"dy":-5},{"dx":-3,"dy":-6},{"dx":0,"dy":-1},{"dx":3,"dy":-5},{"dx":20,"dy":-1},{"dx":24,"dy":7},{"dx":31,"dy":12},{"dx":63,"dy":25},{"dx":42,"dy":20},{"dx":50,"dy":20},{"dx":70,"dy":28},{"dx":44,"dy":10},{"dx":41,"dy":9},{"dx":63,"dy":5},{"dx":39,"dy":-1},{"dx":