[{"success":true,"rt":3038,"trial_type":"fullscreen","trial_index":0,"plugin_version":"2.1.0","time_elapsed":4085},{"task":"fixation","rt":662,"stimulus":"<div style=\"font-size:60px;\">+</div>","response":" ","trial_type":"html-keyboard-response","trial_index":1,"plugin_version":"2.1.0","time_elapsed":4750},{"task":"movingdots","control_change":0,"mouse_data":[{"dx":0,"dy":0},{"dx":0,"dy":0},{"dx":0,"dy":0},{"dx":0,"dy":0},{"dx":0,"dy":0},{"dx":0,"dy":0},{"dx":0,"dy":0},{"dx":0,"dy":0},{"dx":0,"dy":0},{"dx":0,"dy":0},{"dx":0,"dy":0},{"dx":0,"dy":0},{"dx":0,"dy":0},{"dx":0,"dy":0},{"dx":0,"dy":0},{"dx":0,"dy":0},{"dx":0,"dy":0},{"dx":0,"dy":0},{"dx":0,"dy":0},{"dx":0,"dy":0},{"dx":0,"dy":0},{"dx":0,"dy":0},{"dx":0,"dy":0},{"dx":0,"dy":0},{"dx":0,"dy":0},{"dx":0,"dy":0},{"dx":0,"dy":0},{"dx":0,"dy":0},{"dx":0,"dy":0},{"dx":0,"dy":0},{"dx":0,"dy":0},{"dx":0,"dy":0},{"dx":1,"dy":-6},{"dx":0,"dy":-1},{"dx":1,"dy":-4},{"dx":1,"dy":-11},{"dx":1,"dy":-1},{"dx":2,"dy":-7},{"dx":4,"dy":-8},{"dx":3,"dy":-3},{"dx":1,"dy":-1},{"dx":3,"dy":-6},{"dx":4,"dy":-4},{"dx":0,"dy":-1},{"dx":1,"dy":-1},{"dx":3,"dy":-2},{"dx":6,"dy":-5},{"dx":14,"dy":-6},{"dx":11,"dy":-5},{"dx":5,"dy":-2},{"dx":15,"dy":-5},{"dx":8,"dy":-1},{"dx":6,"dy":0},{"dx":6,"dy":-1},{"dx":5,"dy":0},{"dx":4,"dy":0},{"dx":11,"dy":0},{"dx":7,"dy":0},{"dx":7,"dy":0},{"dx":6,"dy":0},{"dx":5,"dy":0},{"dx":6,"dy":1},{"dx":10,"dy":2},{"dx":5,"dy":2},{"dx":4,"dy":1},{"dx":4,"dy":3},{"dx":4,"dy":3},{"dx":5,"dy":4},{"dx":5,"dy":5},{"dx":9,"dy":8},{"dx":9,"dy":7},{"dx":14,"dy":10},{"dx":4,"dy":4},{"dx":10,"dy":9},{"dx":11,"dy":11},{"dx":5,"dy":5},{"dx":5,"dy":7},{"dx":3,"dy":4},{"dx":2,"dy":3},{"dx":2,"dy":4},{"dx":3,"dy":9},{"dx":0,"dy":1},{"dx":2,"dy":4},{"dx":3,"dy":4},{"dx":1,"dy":1},{"dx":3,"dy":4},{"dx":5,"dy":3},{"dx":1,"dy":0},{"dx":5,"dy":1},{"dx":5,"dy":0},{"dx":6,"dy":-2},{"dx":4,"dy":-1},{"dx":15,"dy":-7},{"dx":9,"dy":-5},{"dx":9,"dy":-7},{"dx":15,"dy":-9},{"dx":12,"dy":-6},{"dx":10,"dy":-4},{"dx":7,"dy":-4},{"dx":6,"dy":-4},{"dx":6,"dy":-4},{"dx":11,"dy":-9},{"dx":3,"dy":-6},{"dx":4,"dy":-4},{"dx":2,"dy":-3},{"dx":4,"dy":-5},{"dx":1,"dy":-5},{"dx":1,"dy":-6},{"dx":0,"dy":-7},{"dx":-2,"dy":-8},{"dx":-3,"dy":-6},{"dx":-10,"dy":-15},{"dx":-5,"dy":-8},{"dx":-13,"dy":-16},{"dx":-9,"dy":-9},{"dx":-10,"dy":-9},{"dx":-10,"dy":-8},{"dx":-11,"dy":-9},{"dx":-12,"dy":-10},{"dx":-15,"dy":-13},{"dx":-12,"dy":-8},{"dx":-10,"dy":-9},{"dx":-18,"dy":-11},{"dx":-9,"dy":-8},{"dx":-12,"dy":-8},{"dx":-17,"dy":-9},{"dx":-12,"dy":-5},{"dx":-10,"dy":-4},{"dx":-18,"dy":-7},{"dx":-13,"dy":-2},{"dx":-10,"dy":-3},{"dx":-16,"dy":-3},{"dx":-6,"dy":-1},{"dx":-7,"dy":0},{"dx":-12,"dy":-2},{"dx":-5,"dy":-1},{"dx":-5,"dy":-1},{"dx":-7,"dy":-1},{"dx":-4,"dy":-1},{"dx":-5,"dy":-1},{"dx":-6,"dy":0},{"dx":-4,"dy":0},{"dx":-5,"dy":0},{"dx":-5,"dy":0},{"dx":-5,"dy":1},{"dx":-5,"dy":1},{"dx":-10,"dy":4},{"dx":-9,"dy":4},{"dx":-9,"dy":3},{"dx":-14,"dy":8},{"dx":-11,"dy":6},{"dx":-8,"dy":5},{"dx":-10,"dy":5},{"dx":-13,"dy":8},{"dx":-4,"dy":3},{"dx":-13,"dy":8},{"dx":-13,"dy":8},{"dx":-9,"dy":6},{"dx":-8,"dy":7},{"dx":-9,"dy":7},{"dx":-6,"dy":7},{"dx":-7,"dy":6},{"dx":-9,"dy":10},{"dx":-3,"dy":5},{"dx":-3,"dy":5},{"dx":-3,"dy":6},{"dx":-1,"dy":5},{"dx":-1,"dy":5},{"dx":-1,"dy":7},{"dx":-1,"dy":6},{"dx":-1,"dy":5},{"dx":0,"dy":12},{"dx":0,"dy":4},{"dx":0,"dy":6},{"dx":0,"dy":5},{"dx":0,"dy":1},{"dx":0,"dy":1},{"dx":0,"dy":5},{"dx":0,"dy":5},{"dx":0,"dy":1},{"dx":-5,"dy":11},{"dx":-3,"dy":6},{"dx":-5,"dy":5},{"dx":-6,"dy":7},{"dx":-5,"dy":6},{"dx":-3,"dy":4},{"dx":-8,"dy":6},{"dx":-4,"dy":4},{"dx":-4,"dy":4},{"dx":-6,"dy":7},{"dx":-5,"dy":4},{"dx":-5,"dy":4},{"dx":-9,"dy":9},{"dx":-4,"dy":5},{"dx":-4,"dy":3},{"dx":-5,"dy":3},{"dx":-5,"dy":3},{"dx":-4,"dy":2},{"dx":-8,"dy":3},{"dx":0,"dy":0},{"dx":-5,"dy":1},{"dx":-5,"dy":0},{"dx":-1,"dy":0},{"dx":-1,"dy":0},{"dx":-2,"dy":-1},{"dx":0,"dy":0},{"dx":0,"dy":0},{"dx":-1,"dy":-2},{"dx":0,"dy":-1},{"dx":-1,"dy":-2},{"dx":-1,"dy":-5},{"dx":-1,"dy":-5},{"dx":0,"dy":0},{"dx":-3,"dy":-14},{"dx":-1,"dy":-4},{"dx":-1,"dy":-6},{"dx":-3,"dy":-7},{"dx":-1,"dy":-4},{"dx":-3,"dy":-3},{"dx":-2,"dy":-5},{"dx":-3,"dy":-5},{"dx":-2,"dy":-6},{"dx":-5,"dy":-10},{"dx":-3,"dy":-5},{"dx":-2,"dy":-4},{"dx":-3,"dy":-4},{"dx":-4,"dy":-4},{"dx":-4,"dy":-4},{"dx":-10,"dy":-10},{"dx":-5,"dy":-4},{"dx":-3,"dy":-3},{"dx":-5,"dy":-5},{"dx":0,"dy":0},{"dx":-3,"dy":-3},{"dx":-1,"dy":0},{"dx":-2,"dy":-1},{"dx":-1,"dy":-1},{"dx":-2,"dy":-1},{"dx":0,"dy":0},{"dx":0,"dy":0},{"dx":0,"dy":0},{"dx":-1,"dy":0},{"dx":0,"dy":0},{"dx":-1,"dy":1},{"dx":0,"dy":4},{"dx":-1,"dy":6},{"dx":0,"dy":0},{"dx":0,"dy":5},{"dx":0,"dy":7},{"dx":0,"dy":6},{"dx":0,"dy":6},{"dx":0,"dy":6},{"dx":0,"dy":0},{"dx":0,"dy":5},{"dx":0,"dy":1},{"dx":0,"dy":2},{"dx":0,"dy":2},{"dx":0,"dy":1},{"dx":0,"dy":5},{"dx":0,"dy":1},{"dx":0,"dy":5},{"dx":0,"dy":6},{"dx":0,"dy":1},{"dx":0,"dy":6},{"dx":0,"dy":0},{"dx":0,"dy":5},{"dx":0,"dy":5},{"dx":0,"dy":7},{"dx":0,"dy":6},{"dx":0,"dy":5},{"dx":0,"dy":6},{"dx":0,"dy":7},{"dx":0,"dy":4},{"dx":0,"dy":6},{"dx":0,"dy":11},{"dx":0,"dy":5},{"dx":0,"dy":0},{"dx":0,"dy":5},{"dx":0,"dy":1},{"dx":0,"dy":5},{"dx":1,"dy":6},{"dx":0,"dy":1},{"dx":0,"dy":0},{"dx":0,"dy":0},{"dx":0,"dy":0},{"dx":0,"dy":0},{"dx":0,"dy":0},{"dx":0,"dy":0},{"dx":0,"dy":0},{"dx":0,"dy":0},{"dx":0,"dy":0},{"dx":0,"dy":0},{"dx":0,"dy":0},{"dx":0,"dy":0},{"dx":0,"dy":0},{"dx":0,"dy":0},{"dx":0,"dy":0},{"dx":0,"dy":0},{"dx":0,"dy":0},{"dx":0,"dy":0},{"dx":-2,"dy":-2},{"dx":-5,"dy":-5},{"dx":-4,"dy":-5},{"dx":-4,"dy":-3},{"dx":-3,"dy":-4},{"dx":-4,"dy":-5},{"dx":-2,"dy":-4},{"dx":-3,"dy":-5},{"dx":-2,"dy":-5},{"dx":-2,"dy":-7},{"dx":-2,"dy":-4},{"dx":-1,"dy":-1},{"dx":-2,"dy":-5},{"dx":-3,"dy":-5},{"dx":-2,"dy":-4},{"dx":0,"dy":-1},{"dx":-3,"dy":-6},{"dx":-2,"dy":-4},{"dx":-3,"dy":-5},{"dx":-3,"dy":-6},{"dx":0,"dy":0},{"dx":-3,"dy":-4},{"dx":-1,"dy":-1},{"dx":-3,"dy":-4},{"dx":-1,"dy":-1},{"dx":-3,"dy":-4},{"dx":-3,"dy":-3},{"dx":0,"dy":0},{"dx":-4,"dy":-4},{"dx":-1,"dy":0},{"dx":-4,"dy":-3},{"dx":-2,"dy":-1},{"dx":-4,"dy":-2},{"dx":-1,"dy":0},{"dx":-4,"dy":-1},{"dx":-1,"dy":0},{"dx":-5,"dy":0},{"dx":-4,"dy":1},{"dx":-5,"dy":3},{"dx":-4,"dy":3},{"dx":-3,"dy":3},{"dx":-4,"dy":5},{"dx":-3,"dy":4},{"dx":-3,"dy":10},{"dx":-2,"dy":5},{"dx":-1,"dy":5},{"dx":-2,"dy":5},{"dx":0,"dy":4},{"dx":-2,"dy":6},{"dx":-1,"dy":7},{"dx":-2,"dy":11},{"dx":0,"dy":6},{"dx":-1,"dy":1},{"dx":-1,"dy":12},{"dx":-1,"dy":5},{"dx":-1,"dy":6},{"dx":0,"dy":6},{"dx":-1,"dy":4},{"dx":0,"dy":3},{"dx":0,"dy":6},{"dx":0,"dy":2},{"dx":0,"dy":5},{"dx":1,"dy":5},{"dx":0,"dy":1},{"dx":0,"dy":5},{"dx":0,"dy":4},{"dx":-1,"dy":1},{"dx":-1,"dy":4},{"dx":-5,"dy":6},{"dx":-3,"dy":2},{"dx":-5,"dy":5},{"dx":-9,"dy":6},{"dx":-4,"dy":3},{"dx":-4,"dy":2},{"dx":-5,"dy":2},{"dx":-5,"dy":1},{"dx":-5,"dy":1},{"dx":-5,"dy":1},{"dx":-5,"dy":0},{"dx":-1,"dy":0},{"dx":-4,"dy":0},{"dx":-1,"dy":-1},{"dx":-1,"dy":-1},{"dx":-3,"dy":-4},{"dx":-1,"dy":-6},{"dx":-1,"dy":-6},{"dx":-1,"dy":-6},{"dx":-1,"dy":-6},{"dx":0,"dy":-4},{"dx":-1,"dy":-7},{"dx":-1,"dy":-5},{"dx":-1,"dy":-6},{"dx":-2,"dy":-12},{"dx":-1,"dy":-4},{"dx":0,"dy":-1},{"dx":-3,"dy":-12},{"dx":-1,"dy":-1},{"dx":-1,"dy":-5},{"dx":-2,"dy":-6},{"dx":-1,"dy":-5},{"dx":0,"dy":-1},{"dx":-2,"dy":-5},{"dx":0,"dy":-4},{"dx":-1,"dy":-2},{"dx":-1,"dy":-5},{"dx":-1,"dy":-1},{"dx":-1,"dy":-5},{"dx":-1,"dy":-2},{"dx":-3,"dy":-4},{"dx":0,"dy":-1},{"dx":-4,"dy":-3},{"dx":-1,"dy":-1},{"dx":-1,"dy":-1},{"dx":-1,"dy":-1},{"dx":-1,"dy":-1},{"dx":-1,"dy":0},{"dx":-2,"dy":-1},{"dx":0,"dy":-1},{"dx":-1,"dy":0},{"dx":0,"dy":0},{"dx":-1,"dy":0},{"dx":0,"dy":0},{"dx":0,"dy":0},{"dx":0,"dy":0},{"dx":0,"dy":0},{"dx":-1,"dy":1},{"dx":1,"dy":5},{"dx":0,"dy":1},{"dx":3,"dy":5},{"dx":3,"dy":3},{"dx":4,"dy":6},{"dx":4,"dy":4},{"dx":3,"dy":4},{"dx":5,"dy":2},{"dx":7,"dy":5},{"dx":4,"dy":2},{"dx":5,"dy":3},{"dx":4,"dy":1},{"dx":5,"dy":2},{"dx":5,"dy":0},{"dx":8,"dy":1},{"dx":1,"dy":0},{"dx":5,"dy":0},{"dx":5,"dy":-1},{"dx":5,"dy":-2},{"dx":1,"dy":0},{"dx":5,"dy":-2},{"dx":6,"dy":-2},{"dx":3,"dy":-1},{"dx":7,"dy":-4},{"dx":1,"dy":-1},{"dx":5,"dy":-2}],"trial_type":"plugin-moving-dots-2","trial_index":2,"plugin_version":"0.0.1","time_elapsed":12257},{"task":"fixation","rt":1274,"stimulus":"<div style=\"font-size:60px;\">+</div>","response":" ","trial_type":"html-keyboard-response","trial_index":3,"plugin_version":"2.1.0","time_elapsed":13533},{"task":"movingdots","control_change":0,"mouse_data":[{"dx":0,"dy":0},{"dx":0,"dy":0},{"dx":0,"dy":0},{"dx":0,"dy":0},{"dx":0,"dy":0},{"dx":0,"dy":0},{"dx":0,"dy":0},{"dx":0,"dy":0},{"dx":0,"dy":0},{"dx":0,"dy":0},{"dx":0,"dy":0},{"dx":0,"dy":0},{"dx":0,"dy":0},{"dx":0,"dy":0},{"dx":0,"dy":0},{"dx":0,"dy":0},{"dx":0,"dy":0},{"dx":0,"dy":0},{"dx":0,"dy":0},{"dx":0,"dy":0},{"dx":0,"dy":0},{"dx":0,"dy":0},{"dx":0,"dy":0},{"dx":0,"dy":0},{"dx":0,"dy":0},{"dx":0,"dy":0},{"dx":0,"dy":0},{"dx":0,"dy":0},{"dx":0,"dy":0},{"dx":0,"dy":0},{"dx":0,"dy":0},{"dx":0,"dy":0},{"dx":0,"dy":0},{"dx":0,"dy":0},{"dx":0,"dy":0},{"dx":0,"dy":0},{"dx":0,"dy":0},{"dx":0,"dy":0},{"dx":0,"dy":0},{"dx":0,"dy":0},{"dx":0,"dy":0},{"dx":0,"dy":0},{"dx":0,"dy":0},{"dx":0,"dy":0},{"dx":0,"dy":0},{"dx":2,"dy":-2},{"dx":0,"dy":-1},{"dx":3,"dy":-5},{"dx":0,"dy":-1},{"dx":1,"dy":-5},{"dx":1,"dy":-2},{"dx":1,"dy":-5},{"dx":1,"dy":0},{"dx":1,"dy":-6},{"dx":3,"dy":-6},{"dx":0,"dy":0},{"dx":2,"dy":-4},{"dx":3,"dy":-4},{"dx":3,"dy":-4},{"dx":3,"dy":-5},{"dx":3,"dy":-5},{"dx":0,"dy":-1},{"dx":3,"dy":-4},{"dx":4,"dy":-3},{"dx":0,"dy":0},{"dx":0,"dy":0},{"dx":0,"dy":0},{"dx":0,"dy":0},{"dx":0,"dy":0},{"dx":0,"dy":0},{"dx":0,"dy":0},{"dx":0,"dy":0},{"dx":0,"dy":0},{"dx":0,"dy":0},{"dx":0,"dy":0},{"dx":0,"dy":0},{"dx":0,"dy":0},{"dx":0,"dy":0},{"dx":0,"dy":0},{"dx":0,"dy":0},{"dx":0,"dy":0},{"dx":0,"dy":0},{"dx":0,"dy":0},{"dx":0,"dy":0},{"dx":0,"dy":0},{"dx":0,"dy":0},{"dx":0,"dy":0},{"dx":0,"dy":0},{"dx":0,"dy":0},{"dx":0,"dy":0},{"dx":0,"dy":0},{"dx":0,"dy":0},{"dx":0,"dy":0},{"dx":0,"dy":0},{"dx":0,"dy":0},{"dx":0,"dy":0},{"dx":0,"dy":0},{"dx":0,"dy":0},{"dx":0,"dy":0},{"dx":0,"dy":0},{"dx":0,"dy":0},{"dx":0,"dy":0},{"dx":0,"dy":0},{"dx":0,"dy":0},{"dx":0,"dy":0},{"dx":0,"dy":0},{"dx":0,"dy":0},{"dx":0,"dy":0},{"dx":0,"dy":0},{"dx":0,"dy":0},{"dx":0,"dy":0},{"dx":0,"dy":0},{"dx":0,"dy":0},{"dx":0,"dy":0},{"dx":0,"dy":0},{"dx":0,"dy":0},{"dx":0,"dy":0},{"dx":0,"dy":0},{"dx":0,"dy":0},{"dx":0,"dy":0},{"dx":0,"dy":0},{"dx":0,"dy":0},{"dx":0,"dy":0},{"dx":0,"dy":0},{"dx":0,"dy":0},{"dx":0,"dy":0},{"dx":0,"dy":0},{"dx":0,"dy":0},{"dx":0,"dy":0},{"dx":0,"dy":0},{"dx":0,"dy":0},{"dx":0,"dy":0},{"dx":0,"dy":0},{"dx":0,"dy":0},{"dx":0,"dy":0},{"dx":0,"dy":0},{"dx":0,"dy":0},{"dx":0,"dy":0},{"dx":0,"dy":0},{"dx":0,"dy":0},{"dx":0,"dy":0},{"dx":0,"dy":0},{"dx":0,"dy":0},{"dx":0,"dy":0},{"dx":0,"dy":0},{"dx":0,"dy":0},{"dx":0,"dy":0},{"dx":0,"dy":0},{"dx":0,"dy":0},{"dx":0,"dy":0},{"dx":0,"dy":0},{"dx":0,"dy":0},{"dx":0,"dy":0},{"dx":0,"dy":0},{"dx":0,"dy":0},{"dx":0,"dy":0},{"dx":0,"dy":0},{"dx":0,"dy":0},{"dx":0,"dy":0},{"dx":0,"dy":0},{"dx":0,"dy":0},{"dx":0,"dy":0},{"dx":0,"dy":0},{"dx":0,"dy":0},{"dx":0,"dy":0},{"dx":0,"dy":0},{"dx":0,"dy":0},{"dx":0,"dy":0},{"dx":0,"dy":0},{"dx":0,"dy":0},{"dx":0,"dy":0},{"dx":0,"dy":0},{"dx":0,"dy":0},{"dx":0,"dy":0},{"dx":0,"dy":0},{"dx":0,"dy":0},{"dx":0,"dy":0},{"dx":0,"dy":0},{"dx":0,"dy":0},{"dx":0,"dy":0},{"dx":0,"dy":0},{"dx":0,"dy":0},{"dx":0,"dy":0},{"dx":0,"dy":0},{"dx":3,"dy":-1},{"dx":5,"dy":-4},{"dx":5,"dy":-2},{"dx":1,"dy":-1},{"dx":4,"dy":-2},{"dx":9,"dy":-4},{"dx":4,"dy":-3},{"dx":0,"dy":0},{"dx":9,"dy":-5},{"dx":4,"dy":-2},{"dx":4,"dy":-2},{"dx":8,"dy":-4},{"dx":7,"dy":-3},{"dx":6,"dy":-2},{"dx":4,"dy":-2},{"dx":0,"dy":0},{"dx":0,"dy":0},{"dx":1,"dy":0},{"dx":0,"dy":0},{"dx":0,"dy":0},{"dx":0,"dy":0},{"dx":0,"dy":0},{"dx":0,"dy":0},{"dx":0,"dy":0},{"dx":1,"dy":0},{"dx":1,"dy":0},{"dx":1,"dy":0},{"dx":9,"dy":5},{"dx":4,"dy":3},{"dx":5,"dy":3},{"dx":4,"dy":4},{"dx":3,"dy":3},{"dx":4,"dy":4},{"dx":7,"dy":8},{"dx":4,"dy":3},{"dx":1,"dy":0},{"dx":5,"dy":3},{"dx":3,"dy":3},{"dx":4,"dy":3},{"dx":0,"dy":1},{"dx":1,"dy":2},{"dx":1,"dy":1},{"dx":1,"dy":2},{"dx":1,"dy":4},{"dx":0,"dy":1},{"dx":1,"dy":6},{"dx":0,"dy":6},{"dx":1,"dy":5},{"dx":0,"dy":7},{"dx":0,"dy":0},{"dx":1,"dy":6},{"dx":1,"dy":10},{"dx":2,"dy":5},{"dx":1,"dy":5},{"dx":1,"dy":4},{"dx":3,"dy":7},{"dx":2,"dy":6},{"dx":2,"dy":4},{"dx":3,"dy":6},{"dx":0,"dy":1},{"dx":3,"dy":5},{"dx":3,"dy":5},{"dx":3,"dy":4},{"dx":2,"dy":4},{"dx":0,"dy":1},{"dx":2,"dy":3},{"dx":1,"dy":7},{"dx":0,"dy":0},{"dx":1,"dy":6},{"dx":0,"dy":6},{"dx":0,"dy":1},{"dx":0,"dy":5},{"dx":-2,"dy":7},{"dx":-3,"dy":6},{"dx":-3,"dy":6},{"dx":-3,"dy":5},{"dx":-2,"dy":5},{"dx":-3,"dy":4},{"dx":-3,"dy":4},{"dx":-6,"dy":9},{"dx":-4,"dy":5},{"dx":-3,"dy":3},{"dx":-4,"dy":4},{"dx":-5,"dy":4},{"dx":-5,"dy":4},{"dx":-15,"dy":6},{"dx":-7,"dy":2},{"dx":-8,"dy":3},{"dx":-11,"dy":2},{"dx":-9,"dy":0},{"dx":-8,"dy":0},{"dx":-5,"dy":-1},{"dx":-7,"dy":-2},{"dx":-13,"dy":-4},{"dx":-7,"dy":-3},{"dx":-5,"dy":-3},{"dx":-5,"dy":-3},{"dx":-3,"dy":-4},{"dx":-3,"dy":-4},{"dx":-4,"dy":-9},{"dx":-2,"dy":-4},{"dx":-1,"dy":-1},{"dx":-2,"dy":-6},{"dx":-2,"dy":-6},{"dx":-1,"dy":-6},{"dx":0,"dy":-6},{"dx":0,"dy":-7},{"dx":0,"dy":-6},{"dx":0,"dy":-6},{"dx":2,"dy":-6},{"dx":0,"dy":-1},{"dx":2,"dy":-6},{"dx":5,"dy":-10},{"dx":3,"dy":-7},{"dx":4,"dy":-6},{"dx":4,"dy":-6},{"dx":4,"dy":-5},{"dx":3,"dy":-5},{"dx":7,"dy":-9},{"dx":3,"dy":-5},{"dx":3,"dy":-5},{"dx":3,"dy":-4},{"dx":4,"dy":-5},{"dx":4,"dy":-5},{"dx":7,"dy":-7},{"dx":3,"dy":-3},{"dx":3,"dy":-5},{"dx":3,"dy":-4},{"dx":3,"dy":-3},{"dx":3,"dy":-5},{"dx":5,"dy":-5},{"dx":2,"dy":-2},{"dx":3,"dy":-3},{"dx":6,"dy":-4},{"dx":1,"dy":0},{"dx":4,"dy":-3},{"dx":5,"dy":-3},{"dx":5,"dy":-3},{"dx":4,"dy":-2},{"dx":6,"dy":-2},{"dx":4,"dy":-2},{"dx":5,"dy":0},{"dx":12,"dy":-2},{"dx":6,"dy":0},{"dx":4,"dy":-1},{"dx":6,"dy":0},{"dx":5,"dy":0},{"dx":6,"dy":0},{"dx":5,"dy":0},{"dx":5,"dy":1},{"dx":4,"dy":2},{"dx":1,"dy":0},{"dx":4,"dy":1},{"dx":0,"dy":1},{"dx":4,"dy":4},{"dx":4,"dy":3},{"dx":4,"dy":3},{"dx":7,"dy":7},{"dx":4,"dy":3},{"dx":5,"dy":4},{"dx":4,"dy":4},{"dx":4,"dy":4},{"dx":2,"dy":3},{"dx":6,"dy":6},{"dx":3,"dy":4},{"dx":4,"dy":4},{"dx":3,"dy":5},{"dx":3,"dy":4},{"dx":2,"dy":5},{"dx":3,"dy":4},{"dx":3,"dy":5},{"dx":2,"dy":5},{"dx":3,"dy":5},{"dx":3,"dy":5},{"dx":3,"dy":5},{"dx":3,"dy":6},{"dx":1,"dy":4},{"dx":3,"dy":5},{"dx":2,"dy":4},{"dx":3,"dy":5},{"dx":3,"dy":6},{"dx":2,"dy":4},{"dx":3,"dy":6},{"dx":1,"dy":5},{"dx":2,"dy":6},{"dx":2,"dy":9},{"dx":1,"dy":5},{"dx":2,"dy":4},{"dx":2,"dy":5},{"dx":3,"dy":5},{"dx":2,"dy":5},{"dx":3,"dy":6},{"dx":4,"dy":5},{"dx":0,"dy":1},{"dx":3,"dy":3},{"dx":3,"dy":3},{"dx":3,"dy":5},{"dx":1,"dy":0},{"dx":3,"dy":4},{"dx":1,"dy":1},{"dx":3,"dy":4},{"dx":0,"dy":0},{"dx":4,"dy":2},{"dx":5,"dy":3},{"dx":0,"dy":0},{"dx":4,"dy":2},{"dx":9,"dy":1},{"dx":5,"dy":1},{"dx":5,"dy":1},{"dx":6,"dy":0},{"dx":5,"dy":1},{"dx":5,"dy":1},{"dx":9,"dy":0},{"dx":4,"dy":0},{"dx":4,"dy":0},{"dx":5,"dy":0},{"dx":0,"dy":0},{"dx":5,"dy":-1},{"dx":5,"dy":-2},{"dx":1,"dy":0},{"dx":0,"dy":-1},{"dx":2,"dy":0},{"dx":0,"dy":0},{"dx":0,"dy":0},{"dx":7,"dy":-5},{"dx":1,"dy":-1},{"dx":5,"dy":-5},{"dx":4,"dy":-4},{"dx":2,"dy":-3},{"dx":4,"dy":-5},{"dx":9,"dy":-9},{"dx":4,"dy":-3},{"dx":2,"dy":-4},{"dx":4,"dy":-4},{"dx":3,"dy":-4},{"dx":3,"dy":-5},{"dx":6,"dy":-9},{"dx":2,"dy":-4},{"dx":3,"dy":-5},{"dx":1,"dy":-6},{"dx":3,"dy":-6},{"dx":2,"dy":-5},{"dx":1,"dy":-5},{"dx":1,"dy":-5},{"dx":1,"dy":-6},{"dx":1,"dy":-12},{"dx":0,"dy":-6},{"dx":0,"dy":-5},{"dx":0,"dy":-5},{"dx":0,"dy":-7},{"dx":0,"dy":-5},{"dx":-1,"dy":-12},{"dx":-2,"dy":-4},{"dx":-1,"dy":-5},{"dx":-4,"dy":-7},{"dx":0,"dy":-1},{"dx":-3,"dy":-6},{"dx":-4,"dy":-6},{"dx":-3,"dy":-4},{"dx":-2,"dy":-4},{"dx":-6,"dy":-6},{"dx":-3,"dy":-4},{"dx":-4,"dy":-3},{"dx":-4,"dy":-3},{"dx":-4,"dy":-4},{"dx":-5,"dy":-3},{"dx":-10,"dy":-6},{"dx":-5,"dy":-3},{"dx":-5,"dy":-2}],"trial_type":"plugin-moving-dots-2","trial_index":4,"plugin_version":"0.0.1","time_elapsed":21053},{"task":"fixation","rt":1071,"stimulus":"<div style=\"font-size:60px;\">+</div>","response":" ","trial_type":"html-keyboard-response","trial_index":5,"plugin_version":"2.1.0","time_elapsed":22126},{"task":"movingdots","control_change":0,"mouse_data":[{"dx":0,"dy":0},{"dx":0,"dy":0},{"dx":0,"dy":0},{"dx":0,"dy":0},{"dx":0,"dy":0},{"dx":0,"dy":0},{"dx":0,"dy":0},{"dx":0,"dy":0},{"dx":0,"dy":0},{"dx":0,"dy":0},{"dx":0,"dy":0},{"dx":0,"dy":0},{"dx":0,"dy":0},{"dx":0,"dy":0},{"dx":0,"dy":0},{"dx":0,"dy":0},{"dx":0,"dy":0},{"dx":0,"dy":0},{"dx":0,"dy":0},{"dx":0,"dy":0},{"dx":0,"dy":0},{"dx":0,"dy":0},{"dx":0,"dy":0},{"dx":0,"dy":0},{"dx":0,"dy":0},{"dx":0,"dy":0},{"dx":0,"dy":0},{"dx":0,"dy":0},{"dx":0,"dy":0},{"dx":0,"dy":0},{"dx":0,"dy":0},{"dx":0,"dy":0},{"dx":0,"dy":0},{"dx":0,"dy":0},{"dx":0,"dy":0},{"dx":0,"dy":0},{"dx":0,"dy":0},{"dx":0,"dy":0},{"dx":0,"dy":0},{"dx":0,"dy":0},{"dx":0,"dy":0},{"dx":0,"dy":0},{"dx":0,"dy":0},{"dx":0,"dy":0},{"dx":0,"dy":0},{"dx":0,"dy":0},{"dx":0,"dy":0},{"dx":0,"dy":0},{"dx":0,"dy":0},{"dx":0,"dy":0},{"dx":0,"dy":0},{"dx":0,"dy":0},{"dx":0,"dy":0},{"dx":0,"dy":0},{"dx":0,"dy":0},{"dx":0,"dy":0},{"dx":0,"dy":0},{"dx":0,"dy":0},{"dx":0,"dy":0},{"dx":0,"dy":0},{"dx":0,"dy":0},{"dx":0,"dy":0},{"dx":0,"dy":0},{"dx":0,"dy":0},{"dx":0,"dy":0},{"dx":0,"dy":0},{"dx":0,"dy":0},{"dx":0,"dy":0},{"dx":0,"dy":0},{"dx":0,"dy":0},{"dx":0,"dy":0},{"dx":0,"dy":0},{"dx":0,"dy":0},{"dx":0,"dy":0},{"dx":0,"dy":0},{"dx":0,"dy":0},{"dx":0,"dy":0},{"dx":0,"dy":0},{"dx":0,"dy":0},{"dx":0,"dy":0},{"dx":0,"dy":0},{"dx":0,"dy":0},{"dx":0,"dy":0},{"dx":0,"dy":0},{"dx":0,"dy":0},{"dx":0,"dy":0},{"dx":0,"dy":0},{"dx":0,"dy":0},{"dx":0,"dy":0},{"dx":0,"dy":0},{"dx":0,"dy":0},{"dx":0,"dy":0},{"dx":0,"dy":0},{"dx":0,"dy":0},{"dx":0,"dy":0},{"dx":0,"dy":0},{"dx":-2,"dy":0},{"dx":-1,"dy":0},{"dx":-1,"dy":0},{"dx":-6,"dy":-1},{"dx":0,"dy":-1},{"dx":-5,"dy":-1},{"dx":-1,"dy":0},{"dx":-5,"dy":-1},{"dx":-1,"dy":0},{"dx":-4,"dy":-2},{"dx":-5,"dy":-2},{"dx":-1,"dy":-1},{"dx":-4,"dy":-2},{"dx":-4,"dy":-2},{"dx":-5,"dy":-2},{"dx":-1,"dy":-1},{"dx":-10,"dy":-3},{"dx":-1,"dy":-1},{"dx":-5,"dy":-1},{"dx":-5,"dy":-2},{"dx":-5,"dy":-2},{"dx":0,"dy":0},{"dx":-6,"dy":-2},{"dx":-1,"dy":-1},{"dx":-1,"dy":0},{"dx":-1,"dy":-1},{"dx":-2,"dy":-1},{"dx":-1,"dy":-1},{"dx":-2,"dy":-1},{"dx":-1,"dy":-1},{"dx":-1,"dy":0},{"dx":-1,"dy":-1},{"dx":-1,"dy":-1},{"dx":0,"dy":0},{"dx":-1,"dy":-1},{"dx":0,"dy":0},{"dx":-1,"dy":0},{"dx":-5,"dy":-2},{"dx":0,"dy":0},{"dx":-1,"dy":-1},{"dx":-5,"dy":-1},{"dx":-1,"dy":0},{"dx":-2,"dy":-1},{"dx":-4,"dy":-1},{"dx":-2,"dy":0},{"dx":-3,"dy":0},{"dx":-7,"dy":0},{"dx":0,"dy":0},{"dx":-5,"dy":0},{"dx":-1,"dy":0},{"dx":-5,"dy":0},{"dx":-1,"dy":0},{"dx":-6,"dy":1},{"dx":-4,"dy":1},{"dx":-5,"dy":2},{"dx":-7,"dy":1},{"dx":0,"dy":0},{"dx":0,"dy":0},{"dx":0,"dy":0},{"dx":0,"dy":0},{"dx":0,"dy":0},{"dx":0,"dy":0},{"dx":0,"dy":0},{"dx":0,"dy":0},{"dx":-4,"dy":2},{"dx":-4,"dy":2},{"dx":-1,"dy":0},{"dx":-5,"dy":3},{"dx":-3,"dy":4},{"dx":-5,"dy":3},{"dx":0,"dy":0},{"dx":-4,"dy":3},{"dx":-1,"dy":1},{"dx":-3,"dy":2},{"dx":-1,"dy":0},{"dx":-1,"dy":2},{"dx":-2,"dy":1},{"dx":0,"dy":1},{"dx":-2,"dy":1},{"dx":-1,"dy":2},{"dx":-1,"dy":0},{"dx":0,"dy":2},{"dx":-1,"dy":1},{"dx":-1,"dy":1},{"dx":0,"dy":1},{"dx":-3,"dy":4},{"dx":-1,"dy":1},{"dx":-2,"dy":3},{"dx":-2,"dy":5},{"dx":-3,"dy":5},{"dx":-1,"dy":1},{"dx":-3,"dy":5},{"dx":-2,"dy":4},{"dx":-2,"dy":4},{"dx":-3,"dy":4},{"dx":0,"dy":1},{"dx":-3,"dy":4},{"dx":-3,"dy":5},{"dx":-3,"dy":4},{"dx":-4,"dy":4},{"dx":-5,"dy":9},{"dx":-3,"dy":5},{"dx":-3,"dy":4},{"dx":-3,"dy":3},{"dx":-4,"dy":5},{"dx":0,"dy":0},{"dx":-4,"dy":4},{"dx":-3,"dy":4},{"dx":-3,"dy":2},{"dx":-1,"dy":1},{"dx":-3,"dy":2},{"dx":-4,"dy":4},{"dx":-1,"dy":0},{"dx":-3,"dy":3},{"dx":-1,"dy":1},{"dx":-1,"dy":0},{"dx":-5,"dy":2},{"dx":-1,"dy":0},{"dx":-5,"dy":1},{"dx":-9,"dy":0},{"dx":-5,"dy":0},{"dx":0,"dy":0},{"dx":-6,"dy":-1},{"dx":-5,"dy":-1},{"dx":-5,"dy":-2},{"dx":-4,"dy":-3},{"dx":-5,"dy":-1},{"dx":-4,"dy":-3},{"dx":-6,"dy":-3},{"dx":-1,"dy":0},{"dx":-5,"dy":-3},{"dx":-6,"dy":-3},{"dx":-4,"dy":-3},{"dx":-1,"dy":0},{"dx":-4,"dy":-4},{"dx":-1,"dy":-1},{"dx":-1,"dy":-1},{"dx":-3,"dy":-3},{"dx":0,"dy":-1},{"dx":-1,"dy":-1},{"dx":-3,"dy":-4},{"dx":-1,"dy":-1},{"dx":-4,"dy":-4},{"dx":-1,"dy":0},{"dx":-1,"dy":-1},{"dx":-2,"dy":-1},{"dx":-1,"dy":-1},{"dx":-2,"dy":0},{"dx":-5,"dy":-1},{"dx":-1,"dy":0},{"dx":-5,"dy":2},{"dx":0,"dy":0},{"dx":-4,"dy":4},{"dx":0,"dy":1},{"dx":-2,"dy":3},{"dx":-2,"dy":4},{"dx":0,"dy":1},{"dx":-2,"dy":4},{"dx":-2,"dy":7},{"dx":0,"dy":1},{"dx":-2,"dy":5},{"dx":-1,"dy":5},{"dx":-1,"dy":6},{"dx":0,"dy":1},{"dx":-1,"dy":5},{"dx":-1,"dy":5},{"dx":-1,"dy":4},{"dx":0,"dy":1},{"dx":-1,"dy":5},{"dx":-2,"dy":6},{"dx":0,"dy":7},{"dx":0,"dy":5},{"dx":-1,"dy":6},{"dx":0,"dy":1},{"dx":0,"dy":5},{"dx":0,"dy":5},{"dx":0,"dy":5},{"dx":1,"dy":7},{"dx":0,"dy":1},{"dx":0,"dy":5},{"dx":1,"dy":6},{"dx":1,"dy":5},{"dx":0,"dy":1},{"dx":1,"dy":6},{"dx":1,"dy":1},{"dx":2,"dy":4},{"dx":1,"dy":2},{"dx":1,"dy":4},{"dx":1,"dy":1},{"dx":2,"dy":4},{"dx":3,"dy":5},{"dx":0,"dy":0},{"dx":3,"dy":5},{"dx":3,"dy":3},{"dx":4,"dy":4},{"dx":4,"dy":3},{"dx":3,"dy":3},{"dx":4,"dy":3},{"dx":11,"dy":6},{"dx":4,"dy":3},{"dx":4,"dy":3},{"dx":4,"dy":3},{"dx":4,"dy":2},{"dx":5,"dy":3},{"dx":11,"dy":5},{"dx":6,"dy":2},{"dx":6,"dy":3},{"dx":6,"dy":3},{"dx":7,"dy":2},{"dx":6,"dy":3},{"dx":9,"dy":2},{"dx":6,"dy":1},{"dx":4,"dy":1},{"dx":4,"dy":1},{"dx":6,"dy":1},{"dx":0,"dy":0},{"dx":6,"dy":0},{"dx":5,"dy":0},{"dx":1,"dy":0},{"dx":4,"dy":0},{"dx":4,"dy":0},{"dx":5,"dy":0},{"dx":10,"dy":0},{"dx":5,"dy":0},{"dx":6,"dy":-1},{"dx":5,"dy":0},{"dx":4,"dy":-1},{"dx":5,"dy":0},{"dx":10,"dy":-2},{"dx":5,"dy":0},{"dx":4,"dy":-1},{"dx":5,"dy":-1},{"dx":5,"dy":-1},{"dx":5,"dy":-1},{"dx":7,"dy":-3},{"dx":5,"dy":-1},{"dx":4,"dy":-2},{"dx":5,"dy":-2},{"dx":3,"dy":-2},{"dx":5,"dy":-2},{"dx":10,"dy":-4},{"dx":4,"dy":-1},{"dx":4,"dy":-2},{"dx":7,"dy":-2},{"dx":1,"dy":0},{"dx":5,"dy":-1},{"dx":4,"dy":-1},{"dx":0,"dy":0},{"dx":1,"dy":0},{"dx":5,"dy":1},{"dx":1,"dy":0},{"dx":1,"dy":1},{"dx":3,"dy":3},{"dx":1,"dy":0},{"dx":3,"dy":4},{"dx":3,"dy":6},{"dx":0,"dy":0},{"dx":2,"dy":3},{"dx":0,"dy":2},{"dx":2,"dy":5},{"dx":1,"dy":0},{"dx":1,"dy":2},{"dx":2,"dy":4},{"dx":0,"dy":0},{"dx":2,"dy":5},{"dx":0,"dy":0},{"dx":1,"dy":0},{"dx":4,"dy":5},{"dx":0,"dy":0},{"dx":2,"dy":4},{"dx":1,"dy":0},{"dx":3,"dy":3},{"dx":5,"dy":2},{"dx":4,"dy":2},{"dx":0,"dy":0},{"dx":4,"dy":2},{"dx":5,"dy":1},{"dx":5,"dy":2},{"dx":6,"dy":1},{"dx":4,"dy":1},{"dx":10,"dy":1},{"dx":5,"dy":0},{"dx":4,"dy":0},{"dx":5,"dy":0},{"dx":6,"dy":-1},{"dx":6,"dy":-1},{"dx":5,"dy":-1},{"dx":5,"dy":-2},{"dx":5,"dy":0},{"dx":8,"dy":-5},{"dx":4,"dy":-2},{"dx":3,"dy":-2},{"dx":5,"dy":-2},{"dx":3,"dy":-2},{"dx":5,"dy":-3},{"dx":6,"dy":-4},{"dx":5,"dy":-4},{"dx":4,"dy":-3},{"dx":5,"dy":-3},{"dx":5,"dy":-3},{"dx":5,"dy":-3},{"dx":12,"dy":-7},{"dx":3,"dy":-3},{"dx":4,"dy":-3},{"dx":5,"dy":-5},{"dx":4,"dy":-3},{"dx":3,"dy":-3},{"dx":4,"dy":-3},{"dx":3,"dy":-3},{"dx":4,"dy":-4},{"dx":4,"dy":-4},{"dx":4,"dy":-5},{"dx":3,"dy":-3},{"dx":4,"dy":-5},{"dx":2,"dy":-4},{"dx":4,"dy":-6},{"dx":2,"dy":-4},{"dx":3,"dy":-5},{"dx":2,"dy":-5},{"dx":3,"dy":-9},{"dx":0,"dy":-1},{"dx":2,"dy":-6},{"dx":2,"dy":-5},{"dx":1,"dy":-7},{"dx":0,"dy":-1},{"dx":1,"dy":-11},{"dx":1,"dy":-5},{"dx":0,"dy":-5},{"dx":0,"dy":-7},{"dx":0,"dy":-1},{"dx":-1,"dy":-3},{"dx":-3,"dy":-5},{"dx":0,"dy":-1},{"dx":-2,"dy":-4},{"dx":-3,"dy":-4},{"dx":-2,"dy":-5},{"dx":-1,"dy":0},{"dx":-1,"dy":-5},{"dx":-3,"dy":-5},{"dx":-2,"dy":-5},{"dx":0,"dy":-1},{"dx":-2,"dy":-5},{"dx":0,"dy":-1},{"dx":-3,"dy":-7},{"dx":0,"dy":0},{"dx":-2,"dy":-5},{"dx":-1,"dy":-2},{"dx":-1,"dy":-4},{"dx":-2,"dy":-6},{"dx":-2,"dy":-5},{"dx":0,"dy":-1},{"dx":-4,"dy":-4},{"dx":-7,"dy":-8},{"dx":-4,"dy":-4},{"dx":-4,"dy":-3},{"dx":-5,"dy":-4},{"dx":-4,"dy":-4}],"trial_type":"plugin-moving-dots-2","trial_index":6,"plugin_version":"0.0.1","time_elapsed":29637},{"task":"fixation","rt":630,"stimulus":"<div style=\"font-size:60px;\">+</div>","response":" ","trial_type":"html-keyboard-response","trial_index":7,"plugin_version":"2.1.0","time_elapsed":30270},{"task":"movingdots","control_change":0,"mouse_data":[{"dx":0,"dy":0},{"dx":0,"dy":0},{"dx":0,"dy":0},{"dx":0,"dy":0},{"dx":0,"dy":0},{"dx":0,"dy":0},{"dx":0,"dy":0},{"dx":0,"dy":0},{"dx":0,"dy":0},{"dx":0,"dy":0},{"dx":0,"dy":0},{"dx":0,"dy":0},{"dx":0,"dy":0},{"dx":0,"dy":0},{"dx":0,"dy":0},{"dx":0,"dy":0},{"dx":0,"dy":0},{"dx":0,"dy":0},{"dx":0,"dy":0},{"dx":0,"dy":0},{"dx":0,"dy":0},{"dx":0,"dy":0},{"dx":0,"dy":0},{"dx":0,"dy":0},{"dx":0,"dy":0},{"dx":0,"dy":0},{"dx":0,"dy":0},{"dx":0,"dy":0},{"dx":0,"dy":0},{"dx":0,"dy":0},{"dx":0,"dy":0},{"dx":0,"dy":0},{"dx":0,"dy":0},{"dx":0,"dy":0},{"dx":0,"dy":0},{"dx":0,"dy":0},{"dx":0,"dy":0},{"dx":0,"dy":0},{"dx":0,"dy":0},{"dx":0,"dy":0},{"dx":0,"dy":0},{"dx":0,"dy":0},{"dx":0,"dy":0},{"dx":0,"dy":0},{"dx":0,"dy":0},{"dx":0,"dy":0},{"dx":0,"dy":0},{"dx":0,"dy":0},{"dx":0,"dy":0},{"dx":0,"dy":0},{"dx":0,"dy":0},{"dx":0,"dy":0},{"dx":0,"dy":0},{"dx":0,"dy":0},{"dx":0,"dy":0},{"dx":0,"dy":0},{"dx":0,"dy":0},{"dx":0,"dy":0},{"dx":0,"dy":0},{"dx":0,"dy":0},{"dx":0,"dy":0},{"dx":0,"dy":0},{"dx":0,"dy":0},{"dx":0,"dy":-3},{"dx":3,"dy":-5},{"dx":2,"dy":-6},{"dx":2,"dy":-6},{"dx":1,"dy":-5},{"dx":3,"dy":-12},{"dx":1,"dy":-5},{"dx":0,"dy":-1},{"dx":2,"dy":-10},{"dx":1,"dy":-6},{"dx":1,"dy":-5},{"dx":1,"dy":-4},{"dx":0,"dy":-6},{"dx":1,"dy":-6},{"dx":2,"dy":-12},{"dx":0,"dy":-1},{"dx":2,"dy":-8},{"dx":2,"dy":-9},{"dx":1,"dy":-6},{"dx":0,"dy":-1},{"dx":2,"dy":-6},{"dx":1,"dy":-5},{"dx":2,"dy":-7},{"dx":2,"dy":-6},{"dx":0,"dy":0},{"dx":1,"dy":-5},{"dx":2,"dy":-6},{"dx":2,"dy":-6},{"dx":0,"dy":0},{"dx":2,"dy":-6},{"dx":0,"dy":-1},{"dx":3,"dy":-6},{"dx":0,"dy":-1},{"dx":0,"dy":-1},{"dx":1,"dy":-1},{"dx":1,"dy":-2},{"dx":2,"dy":-4},{"dx":1,"dy":-1},{"dx":3,"dy":-5},{"dx":0,"dy":0},{"dx":3,"dy":-6},{"dx":5,"dy":-5},{"dx":3,"dy":-3},{"dx":3,"dy":-3},{"dx":4,"dy":-4},{"dx":5,"dy":-4},{"dx":0,"dy":-1},{"dx":8,"dy":-7},{"dx":3,"dy":-2},{"dx":1,"dy":-1},{"dx":3,"dy":-4},{"dx":4,"dy":-4},{"dx":0,"dy":-1},{"dx":4,"dy":-4},{"dx":4,"dy":-4},{"dx":4,"dy":-3},{"dx":4,"dy":-3},{"dx":4,"dy":-3},{"dx":4,"dy":-3},{"dx":4,"dy":-3},{"dx":5,"dy":-4},{"dx":3,"dy":-3},{"dx":3,"dy":-3},{"dx":5,"dy":-4},{"dx":0,"dy":0},{"dx":4,"dy":-2},{"dx":3,"dy":-3},{"dx":4,"dy":-3},{"dx":4,"dy":-2},{"dx":1,"dy":-1},{"dx":4,"dy":-3},{"dx":4,"dy":-3},{"dx":6,"dy":-3},{"dx":0,"dy":0},{"dx":4,"dy":-3},{"dx":9,"dy":-4},{"dx":1,"dy":-1},{"dx":6,"dy":-3},{"dx":4,"dy":-2},{"dx":5,"dy":-3},{"dx":6,"dy":-2},{"dx":4,"dy":-1},{"dx":5,"dy":-2},{"dx":5,"dy":-1},{"dx":8,"dy":-3},{"dx":4,"dy":-2},{"dx":1,"dy":0},{"dx":10,"dy":-3},{"dx":5,"dy":-1},{"dx":5,"dy":-1},{"dx":5,"dy":-1},{"dx":0,"dy":0},{"dx":5,"dy":0},{"dx":4,"dy":0},{"dx":5,"dy":0},{"dx":1,"dy":0},{"dx":4,"dy":0},{"dx":4,"dy":0},{"dx":6,"dy":1},{"dx":5,"dy":1},{"dx":0,"dy":0},{"dx":4,"dy":2},{"dx":4,"dy":1},{"dx":1,"dy":1},{"dx":4,"dy":1},{"dx":1,"dy":0},{"dx":5,"dy":3},{"dx":0,"dy":0},{"dx":1,"dy":0},{"dx":1,"dy":1},{"dx":4,"dy":2},{"dx":0,"dy":1},{"dx":4,"dy":2},{"dx":1,"dy":0},{"dx":1,"dy":1},{"dx":1,"dy":1},{"dx":0,"dy":0},{"dx":1,"dy":1},{"dx":1,"dy":1},{"dx":1,"dy":1},{"dx":2,"dy":1},{"dx":2,"dy":3},{"dx":1,"dy":1},{"dx":3,"dy":2},{"dx":3,"dy":3},{"dx":3,"dy":5},{"dx":4,"dy":4},{"dx":4,"dy":4},{"dx":1,"dy":0},{"dx":4,"dy":4},{"dx":3,"dy":3},{"dx":5,"dy":6},{"dx":4,"dy":5},{"dx":1,"dy":0},{"dx":2,"dy":4},{"dx":3,"dy":4},{"dx":3,"dy":5},{"dx":3,"dy":5},{"dx":2,"dy":5},{"dx":3,"dy":4},{"dx":1,"dy":1},{"dx":2,"dy":5},{"dx":3,"dy":4},{"dx":2,"dy":6},{"dx":2,"dy":5},{"dx":0,"dy":0},{"dx":1,"dy":4},{"dx":3,"dy":6},{"dx":0,"dy":1},{"dx":1,"dy":4},{"dx":1,"dy":2},{"dx":2,"dy":4},{"dx":1,"dy":1},{"dx":2,"dy":5},{"dx":3,"dy":4},{"dx":1,"dy":1},{"dx":6,"dy":7},{"dx":4,"dy":4},{"dx":4,"dy":3},{"dx":5,"dy":2},{"dx":3,"dy":2},{"dx":4,"dy":2},{"dx":6,"dy":2},{"dx":5,"dy":1},{"dx":5,"dy":0},{"dx":10,"dy":0},{"dx":0,"dy":0},{"dx":5,"dy":0},{"dx":4,"dy":-2},{"dx":4,"dy":-3},{"dx":0,"dy":0},{"dx":3,"dy":-3},{"dx":4,"dy":-4},{"dx":4,"dy":-4},{"dx":8,"dy":-9},{"dx":3,"dy":-4},{"dx":3,"dy":-4},{"dx":3,"dy":-4},{"dx":2,"dy":-5},{"dx":1,"dy":-3},{"dx":2,"dy":-6},{"dx":2,"dy":-5},{"dx":1,"dy":-6},{"dx":0,"dy":-5},{"dx":0,"dy":-1},{"dx":0,"dy":-4},{"dx":-2,"dy":-7},{"dx":-3,"dy":-6},{"dx":-3,"dy":-4},{"dx":-5,"dy":-6},{"dx":-4,"dy":-3},{"dx":-4,"dy":-3},{"dx":-6,"dy":-4},{"dx":-6,"dy":-3},{"dx":-7,"dy":-3},{"dx":-12,"dy":-5},{"dx":-5,"dy":-3},{"dx":-5,"dy":-2},{"dx":-13,"dy":-4},{"dx":-8,"dy":-3},{"dx":-7,"dy":-2},{"dx":-9,"dy":-2},{"dx":-16,"dy":-3},{"dx":-7,"dy":0},{"dx":-6,"dy":0},{"dx":-8,"dy":0},{"dx":-8,"dy":0},{"dx":-8,"dy":1},{"dx":-12,"dy":3},{"dx":-7,"dy":2},{"dx":-8,"dy":3},{"dx":-6,"dy":3},{"dx":-8,"dy":3},{"dx":-6,"dy":3},{"dx":-14,"dy":8},{"dx":-7,"dy":4},{"dx":-5,"dy":4},{"dx":-5,"dy":5},{"dx":-3,"dy":5},{"dx":-4,"dy":4},{"dx":-7,"dy":11},{"dx":-3,"dy":5},{"dx":-3,"dy":5},{"dx":-3,"dy":6},{"dx":-2,"dy":7},{"dx":-1,"dy":4},{"dx":-2,"dy":7},{"dx":0,"dy":5},{"dx":-1,"dy":6},{"dx":0,"dy":10},{"dx":0,"dy":6},{"dx":0,"dy":6},{"dx":1,"dy":5},{"dx":2,"dy":6},{"dx":0,"dy":0},{"dx":1,"dy":6},{"dx":2,"dy":4},{"dx":1,"dy":5},{"dx":2,"dy":5},{"dx":0,"dy":1},{"dx":1,"dy":6},{"dx":2,"dy":11},{"dx":1,"dy":6},{"dx":0,"dy":0},{"dx":1,"dy":7},{"dx":1,"dy":6},{"dx":3,"dy":6},{"dx":0,"dy":0},{"dx":3,"dy":5},{"dx":2,"dy":5},{"dx":2,"dy":5},{"dx":2,"dy":4},{"dx":1,"dy":1},{"dx":2,"dy":3},{"dx":3,"dy":4},{"dx":1,"dy":1},{"dx":4,"dy":4},{"dx":1,"dy":1},{"dx":3,"dy":3},{"dx":4,"dy":3},{"dx":4,"dy":2},{"dx":1,"dy":0},{"dx":4,"dy":2},{"dx":5,"dy":1},{"dx":1,"dy":1},{"dx":5,"dy":2},{"dx":0,"dy":0},{"dx":1,"dy":0},{"dx":1,"dy":1},{"dx":2,"dy":0},{"dx":1,"dy":1},{"dx":1,"dy":1},{"dx":4,"dy":2},{"dx":0,"dy":1},{"dx":2,"dy":0},{"dx":3,"dy":3},{"dx":1,"dy":0},{"dx":0,"dy":1},{"dx":2,"dy":2},{"dx":0,"dy":1},{"dx":3,"dy":4},{"dx":0,"dy":1},{"dx":2,"dy":5},{"dx":1,"dy":1},{"dx":2,"dy":5},{"dx":0,"dy":1},{"dx":2,"dy":4},{"dx":0,"dy":2},{"dx":1,"dy":2},{"dx":0,"dy":1},{"dx":0,"dy":5},{"dx":0,"dy":1},{"dx":-1,"dy":4},{"dx":-1,"dy":1},{"dx":-1,"dy":1},{"dx":-3,"dy":3},{"dx":-5,"dy":4},{"dx":0,"dy":0},{"dx":-5,"dy":2},{"dx":-6,"dy":2},{"dx":-5,"dy":2},{"dx":-4,"dy":1},{"dx":-10,"dy":2},{"dx":-5,"dy":1},{"dx":-4,"dy":1},{"dx":-6,"dy":0},{"dx":-6,"dy":2},{"dx":-5,"dy":0},{"dx":-7,"dy":1},{"dx":-5,"dy":0},{"dx":-5,"dy":1},{"dx":-6,"dy":1},{"dx":-5,"dy":1},{"dx":-5,"dy":1},{"dx":-9,"dy":2},{"dx":-5,"dy":1},{"dx":-5,"dy":1},{"dx":-6,"dy":1},{"dx":-4,"dy":1},{"dx":-5,"dy":1},{"dx":-6,"dy":1},{"dx":-6,"dy":2},{"dx":-5,"dy":2},{"dx":-5,"dy":2},{"dx":-6,"dy":2},{"dx":-1,"dy":0},{"dx":-4,"dy":1},{"dx":-1,"dy":1},{"dx":-1,"dy":1},{"dx":-1,"dy":0},{"dx":-2,"dy":2},{"dx":0,"dy":0},{"dx":-1,"dy":0},{"dx":0,"dy":1},{"dx":0,"dy":0},{"dx":0,"dy":0},{"dx":0,"dy":0},{"dx":0,"dy":0},{"dx":0,"dy":0},{"dx":0,"dy":1},{"dx":0,"dy":1},{"dx":0,"dy":0},{"dx":1,"dy":1},{"dx":4,"dy":3},{"dx":3,"dy":2},{"dx":4,"dy":2},{"dx":1,"dy":0},{"dx":4,"dy":2},{"dx":5,"dy":1},{"dx":1,"dy":0},{"dx":4,"dy":1},{"dx":1,"dy":0},{"dx":4,"dy":0},{"dx":0,"dy":0},{"dx":6,"dy":0},{"dx":0,"dy":0},{"dx":4,"dy":0},{"dx":6,"dy":0},{"dx":0,"dy":0},{"dx":5,"dy":-1},{"dx":10,"dy":-1},{"dx":0,"dy":0},{"dx":5,"dy":-1},{"dx":4,"dy":-2},{"dx":2,"dy":-1},{"dx":4,"dy":-2},{"dx":4,"dy":-2},{"dx":5,"dy":-4},{"dx":3,"dy":-2},{"dx":5,"dy":-4},{"dx":4,"dy":-3},{"dx":3,"dy":-2},{"dx":6,"dy":-7},{"dx":3,"dy":-3},{"dx":4,"dy":-4},{"dx":4,"dy":-4},{"dx":3,"dy":-4},{"dx":1,"dy":0},{"dx":4,"dy":-5},{"dx":3,"dy":-3},{"dx":3,"dy":-4},{"dx":3,"dy":-5},{"dx":0,"dy":-1},{"dx":3,"dy":-4},{"dx":2,"dy":-5},{"dx":0,"dy":-1},{"dx":2,"dy":-5},{"dx":2,"dy":-5},{"dx":0,"dy":-1},{"dx":1,"dy":-1}],"trial_type":"plugin-moving-dots-2","trial_index":8,"plugin_version":"0.0.1","time_elapsed":37787},{"task":"fixation","rt":1137,"stimulus":"<div style=\"font-size:60px;\">+</div>","response":" ","trial_type":"html-keyboard-response","trial_index":9,"plugin_version":"2.1.0","time_elapsed":38925},{"task":"movingdots","control_change":0,"mouse_data":[{"dx":0,"dy":0},{"dx":0,"dy":0},{"dx":0,"dy":0},{"dx":0,"dy":0},{"dx":0,"dy":0},{"dx":0,"dy":0},{"dx":0,"dy":0},{"dx":0,"dy":0},{"dx":0,"dy":0},{"dx":0,"dy":0},{"dx":0,"dy":0},{"dx":0,"dy":0},{"dx":0,"dy":0},{"dx":0,"dy":0},{"dx":0,"dy":0},{"dx":0,"dy":0},{"dx":0,"dy":0},{"dx":0,"dy":0},{"dx":0,"dy":0},{"dx":0,"dy":0},{"dx":0,"dy":0},{"dx":0,"dy":0},{"dx":0,"dy":0},{"dx":0,"dy":0},{"dx":0,"dy":0},{"dx":0,"dy":0},{"dx":0,"dy":0},{"dx":0,"dy":0},{"dx":0,"dy":0},{"dx":0,"dy":0},{"dx":0,"dy":0},{"dx":0,"dy":0},{"dx":0,"dy":0},{"dx":0,"dy":0},{"dx":0,"dy":0},{"dx":0,"dy":0},{"dx":0,"dy":0},{"dx":0,"dy":0},{"dx":0,"dy":0},{"dx":0,"dy":0},{"dx":0,"dy":0},{"dx":0,"dy":0},{"dx":5,"dy":-4},{"dx":6,"dy":-4},{"dx":12,"dy":-11},{"dx":7,"dy":-7},{"dx":12,"dy":-12},{"dx":4,"dy":-5},{"dx":5,"dy":-6},{"dx":9,"dy":-11},{"dx":4,"dy":-7},{"dx":4,"dy":-6},{"dx":2,"dy":-5},{"dx":2,"dy":-5},{"dx":3,"dy":-5},{"dx":4,"dy":-9},{"dx":2,"dy":-5},{"dx":2,"dy":-5},{"dx":3,"dy":-4},{"dx":2,"dy":-6},{"dx":2,"dy":-6},{"dx":0,"dy":-1},{"dx":1,"dy":-6},{"dx":1,"dy":-4},{"dx":0,"dy":-2},{"dx":1,"dy":-6},{"dx":0,"dy":-7},{"dx":0,"dy":0},{"dx":-1,"dy":-5},{"dx":-2,"dy":-5},{"dx":-2,"dy":-6},{"dx":-3,"dy":-5},{"dx":-3,"dy":-4},{"dx":-3,"dy":-5},{"dx":-3,"dy":-5},{"dx":-4,"dy":-4},{"dx":-4,"dy":-5},{"dx":-4,"dy":-3},{"dx":-1,"dy":-1},{"dx":-3,"dy":-3},{"dx":-3,"dy":-3},{"dx":-4,"dy":-4},{"dx":0,"dy":-1},{"dx":-4,"dy":-4},{"dx":-1,"dy":-2},{"dx":-2,"dy":-3},{"dx":-2,"dy":-1},{"dx":-3,"dy":-5},{"dx":0,"dy":0},{"dx":-1,"dy":-1},{"dx":-1,"dy":-2},{"dx":-1,"dy":-1},{"dx":-1,"dy":-1},{"dx":0,"dy":-2},{"dx":0,"dy":-1},{"dx":0,"dy":-6},{"dx":0,"dy":-1},{"dx":2,"dy":-5},{"dx":0,"dy":-1},{"dx":2,"dy":-5},{"dx":4,"dy":-6},{"dx":3,"dy":-4},{"dx":4,"dy":-5},{"dx":3,"dy":-3},{"dx":6,"dy":-7},{"dx":5,"dy":-3},{"dx":3,"dy":-2},{"dx":4,"dy":-3},{"dx":4,"dy":-2},{"dx":5,"dy":-2},{"dx":9,"dy":-4},{"dx":6,"dy":-2},{"dx":4,"dy":-2},{"dx":5,"dy":-1},{"dx":5,"dy":-2},{"dx":6,"dy":-1},{"dx":5,"dy":-1},{"dx":5,"dy":-2},{"dx":5,"dy":-1},{"dx":10,"dy":-1},{"dx":4,"dy":0},{"dx":5,"dy":0},{"dx":7,"dy":-1},{"dx":5,"dy":0},{"dx":5,"dy":0},{"dx":5,"dy":0},{"dx":10,"dy":0},{"dx":6,"dy":0},{"dx":6,"dy":0},{"dx":5,"dy":1},{"dx":4,"dy":0},{"dx":5,"dy":1},{"dx":9,"dy":2},{"dx":4,"dy":1},{"dx":5,"dy":2},{"dx":5,"dy":1},{"dx":4,"dy":1},{"dx":6,"dy":2},{"dx":11,"dy":3},{"dx":4,"dy":1},{"dx":4,"dy":2},{"dx":5,"dy":2},{"dx":4,"dy":3},{"dx":4,"dy":2},{"dx":9,"dy":4},{"dx":3,"dy":2},{"dx":4,"dy":2},{"dx":3,"dy":3},{"dx":4,"dy":4},{"dx":4,"dy":5},{"dx":4,"dy":3},{"dx":0,"dy":1},{"dx":4,"dy":3},{"dx":3,"dy":4},{"dx":4,"dy":4},{"dx":3,"dy":4},{"dx":4,"dy":4},{"dx":3,"dy":5},{"dx":4,"dy":5},{"dx":5,"dy":9},{"dx":2,"dy":4},{"dx":4,"dy":5},{"dx":3,"dy":4},{"dx":3,"dy":3},{"dx":3,"dy":5},{"dx":6,"dy":7},{"dx":3,"dy":3},{"dx":4,"dy":4},{"dx":3,"dy":6},{"dx":3,"dy":4},{"dx":3,"dy":4},{"dx":7,"dy":8},{"dx":3,"dy":3},{"dx":3,"dy":4},{"dx":4,"dy":4},{"dx":5,"dy":3},{"dx":4,"dy":4},{"dx":8,"dy":7},{"dx":3,"dy":3},{"dx":4,"dy":3},{"dx":4,"dy":3},{"dx":6,"dy":2},{"dx":3,"dy":3},{"dx":7,"dy":4},{"dx":4,"dy":2},{"dx":1,"dy":0},{"dx":5,"dy":3},{"dx":3,"dy":2},{"dx":1,"dy":0},{"dx":5,"dy":1},{"dx":0,"dy":0},{"dx":5,"dy":1},{"dx":5,"dy":0},{"dx":6,"dy":0},{"dx":4,"dy":-1},{"dx":4,"dy":-2},{"dx":4,"dy":-3},{"dx":4,"dy":-2},{"dx":7,"dy":-5},{"dx":3,"dy":-3},{"dx":4,"dy":-2},{"dx":3,"dy":-5},{"dx":3,"dy":-4},{"dx":3,"dy":-4},{"dx":5,"dy":-8},{"dx":4,"dy":-5},{"dx":4,"dy":-6},{"dx":3,"dy":-6},{"dx":3,"dy":-6},{"dx":4,"dy":-6},{"dx":7,"dy":-10},{"dx":3,"dy":-4},{"dx":3,"dy":-4},{"dx":4,"dy":-6},{"dx":2,"dy":-5},{"dx":3,"dy":-4},{"dx":6,"dy":-9},{"dx":4,"dy":-5},{"dx":4,"dy":-6},{"dx":3,"dy":-5},{"dx":2,"dy":-4},{"dx":3,"dy":-5},{"dx":3,"dy":-5},{"dx":2,"dy":-4},{"dx":0,"dy":-1},{"dx":3,"dy":-4},{"dx":3,"dy":-3},{"dx":0,"dy":-1},{"dx":3,"dy":-5},{"dx":0,"dy":-1},{"dx":0,"dy":-1},{"dx":3,"dy":-4},{"dx":2,"dy":-5},{"dx":0,"dy":0},{"dx":2,"dy":-6},{"dx":0,"dy":-1},{"dx":0,"dy":-5},{"dx":0,"dy":-1},{"dx":1,"dy":-6},{"dx":0,"dy":-7},{"dx":0,"dy":0},{"dx":-2,"dy":-6},{"dx":-1,"dy":-5},{"dx":0,"dy":-6},{"dx":-3,"dy":-12},{"dx":-1,"dy":-5},{"dx":-3,"dy":-5},{"dx":-3,"dy":-6},{"dx":-2,"dy":-4},{"dx":-3,"dy":0},{"dx":-3,"dy":0},{"dx":-3,"dy":0},{"dx":-5,"dy":0},{"dx":-6,"dy":0},{"dx":-4,"dy":0},{"dx":-5,"dy":0},{"dx":-6,"dy":0},{"dx":-5,"dy":0},{"dx":-4,"dy":0},{"dx":-6,"dy":0},{"dx":-1,"dy":0},{"dx":-2,"dy":0},{"dx":-1,"dy":0},{"dx":-1,"dy":0},{"dx":-2,"dy":0},{"dx":-6,"dy":1},{"dx":-5,"dy":2},{"dx":0,"dy":0},{"dx":-10,"dy":6},{"dx":-3,"dy":2},{"dx":-4,"dy":3},{"dx":-5,"dy":3},{"dx":-5,"dy":4},{"dx":-5,"dy":4},{"dx":-10,"dy":9},{"dx":-5,"dy":4},{"dx":-4,"dy":5},{"dx":-6,"dy":6},{"dx":-5,"dy":5},{"dx":-6,"dy":5},{"dx":-7,"dy":8},{"dx":-4,"dy":4},{"dx":-3,"dy":5},{"dx":-4,"dy":4},{"dx":-2,"dy":4},{"dx":-3,"dy":4},{"dx":-3,"dy":4},{"dx":-3,"dy":4},{"dx":0,"dy":1},{"dx":0,"dy":0},{"dx":0,"dy":1},{"dx":0,"dy":0},{"dx":0,"dy":0},{"dx":0,"dy":0},{"dx":0,"dy":0},{"dx":0,"dy":0},{"dx":0,"dy":-1},{"dx":2,"dy":-5},{"dx":2,"dy":-7},{"dx":2,"dy":-12},{"dx":2,"dy":-6},{"dx":2,"dy":-6},{"dx":0,"dy":-7},{"dx":1,"dy":-6},{"dx":2,"dy":-11},{"dx":0,"dy":-2},{"dx":1,"dy":-5},{"dx":2,"dy":-6},{"dx":1,"dy":-7},{"dx":0,"dy":-5},{"dx":1,"dy":-6},{"dx":0,"dy":-6},{"dx":0,"dy":0},{"dx":0,"dy":0},{"dx":0,"dy":0},{"dx":0,"dy":0},{"dx":0,"dy":0},{"dx":0,"dy":0},{"dx":0,"dy":0},{"dx":0,"dy":0},{"dx":0,"dy":0},{"dx":0,"dy":0},{"dx":0,"dy":0},{"dx":-1,"dy":0},{"dx":0,"dy":0},{"dx":0,"dy":0},{"dx":0,"dy":0},{"dx":0,"dy":0},{"dx":0,"dy":0},{"dx":1,"dy":0},{"dx":0,"dy":0},{"dx":0,"dy":0},{"dx":1,"dy":0},{"dx":0,"dy":0},{"dx":0,"dy":0},{"dx":0,"dy":0},{"dx":0,"dy":0},{"dx":0,"dy":0},{"dx":-1,"dy":0},{"dx":-4,"dy":0},{"dx":-4,"dy":0},{"dx":-9,"dy":0},{"dx":-5,"dy":0},{"dx":-5,"dy":0},{"dx":-6,"dy":0},{"dx":-4,"dy":0},{"dx":-6,"dy":0},{"dx":-6,"dy":0},{"dx":-5,"dy":0},{"dx":-1,"dy":0},{"dx":-10,"dy":0},{"dx":-4,"dy":0},{"dx":-5,"dy":0},{"dx":-5,"dy":0},{"dx":-5,"dy":0},{"dx":-1,"dy":0},{"dx":-2,"dy":0},{"dx":0,"dy":0},{"dx":-1,"dy":0},{"dx":0,"dy":0},{"dx":0,"dy":0},{"dx":0,"dy":0},{"dx":0,"dy":0},{"dx":0,"dy":0},{"dx":0,"dy":0},{"dx":0,"dy":0},{"dx":1,"dy":0},{"dx":2,"dy":0},{"dx":4,"dy":0},{"dx":6,"dy":0},{"dx":6,"dy":1},{"dx":6,"dy":1},{"dx":11,"dy":3},{"dx":10,"dy":2},{"dx":12,"dy":2},{"dx":6,"dy":1},{"dx":7,"dy":0},{"dx":7,"dy":0},{"dx":6,"dy":1},{"dx":4,"dy":0},{"dx":5,"dy":0},{"dx":1,"dy":0},{"dx":1,"dy":0},{"dx":1,"dy":0},{"dx":1,"dy":0},{"dx":1,"dy":0},{"dx":2,"dy":0},{"dx":1,"dy":0},{"dx":0,"dy":0},{"dx":0,"dy":0},{"dx":0,"dy":0},{"dx":0,"dy":0},{"dx":0,"dy":0},{"dx":0,"dy":-1},{"dx":0,"dy":-1},{"dx":-5,"dy":-2},{"dx":-5,"dy":-2},{"dx":-5,"dy":-2},{"dx":-4,"dy":-2},{"dx":-10,"dy":-1},{"dx":-5,"dy":0},{"dx":-6,"dy":0},{"dx":-6,"dy":0},{"dx":-5,"dy":0},{"dx":-9,"dy":0},{"dx":-6,"dy":0},{"dx":-5,"dy":0},{"dx":-6,"dy":0},{"dx":-4,"dy":0},{"dx":-5,"dy":0},{"dx":-5,"dy":0},{"dx":-1,"dy":0},{"dx":-1,"dy":0},{"dx":-1,"dy":0},{"dx":-1,"dy":0},{"dx":0,"dy":0},{"dx":-1,"dy":0},{"dx":0,"dy":0},{"dx":0,"dy":0},{"dx":0,"dy":0},{"dx":0,"dy":0},{"dx":0,"dy":0},{"dx":1,"dy":0},{"dx":0,"dy":0},{"dx":1,"dy":0},{"dx":0,"dy":0},{"dx":0,"dy":0},{"dx":0,"dy":0},{"dx":0,"dy":0},{"dx":0,"dy":0},{"dx":0,"dy":0},{"dx":0,"dy":0},{"dx":0,"dy":0},{"dx":0,"dy":0},{"dx":-2,"dy":0},{"dx":-1,"dy":0},{"dx":-3,"dy":0},{"dx":-1,"dy":0},{"dx":-1,"dy":0},{"dx":-1,"dy":0},{"dx":0,"dy":0},{"dx":-1,"dy":0},{"dx":0,"dy":0},{"dx":-1,"dy":0},{"dx":-5,"dy":0},{"dx":-4,"dy":0},{"dx":-5,"dy":0},{"dx":-6,"dy":0},{"dx":-6,"dy":0},{"dx":-7,"dy":0},{"dx":-12,"dy":0},{"dx":-5,"dy":0},{"dx":-4,"dy":0}],"trial_type":"plugin-moving-dots-2","trial_index":10,"plugin_version":"0.0.1","time_elapsed":46436},{"task":"fixation","rt":11623,"stimulus":"<div style=\"font-size:60px;\">+</div>","response":" ","trial_type":"html-keyboard-response","trial_index":11,"plugin_version":"2.1.0","time_elapsed":58061},{"task":"movingdots","control_change":0,"mouse_data":[{"dx":0,"dy":0},{"dx":0,"dy":0},{"dx":0,"dy":0},{"dx":0,"dy":0},{"dx":0,"dy":0},{"dx":0,"dy":0},{"dx":0,"dy":0},{"dx":0,"dy":0},{"dx":0,"dy":0},{"dx":0,"dy":0},{"dx":0,"dy":0},{"dx":0,"dy":0},{"dx":0,"dy":0},{"dx":0,"dy":0},{"dx":0,"dy":0},{"dx":0,"dy":0},{"dx":0,"dy":0},{"dx":0,"dy":0},{"dx":0,"dy":0},{"dx":0,"dy":0},{"dx":0,"dy":0},{"dx":0,"dy":0},{"dx":0,"dy":0},{"dx":0,"dy":0},{"dx":0,"dy":0},{"dx":0,"dy":0},{"dx":0,"dy":0},{"dx":0,"dy":0},{"dx":0,"dy":0},{"dx":0,"dy":0},{"dx":0,"dy":0},{"dx":0,"dy":0},{"dx":0,"dy":0},{"dx":0,"dy":0},{"dx":0,"dy":0},{"dx":0,"dy":0},{"dx":0,"dy":0},{"dx":0,"dy":-5},{"dx":0,"dy":-7},{"dx":0,"dy":-5},{"dx":0,"dy":-5},{"dx":0,"dy":-6},{"dx":0,"dy":-6},{"dx":0,"dy":-1},{"dx":2,"dy":-6},{"dx":0,"dy":-1},{"dx":1,"dy":-4},{"dx":1,"dy":-1},{"dx":1,"dy":-6},{"dx":0,"dy":-1},{"dx":0,"dy":0},{"dx":0,"dy":-1},{"dx":0,"dy":0},{"dx":0,"dy":-1},{"dx":1,"dy":-5},{"dx":2,"dy":-5},{"dx":1,"dy":-1},{"dx":3,"dy":-5},{"dx":3,"dy":-4},{"dx":0,"dy":-1},{"dx":4,"dy":-4},{"dx":4,"dy":-3},{"dx":6,"dy":-4},{"dx":4,"dy":-2},{"dx":6,"dy":-2},{"dx":4,"dy":-3},{"dx":5,"dy":-3},{"dx":10,"dy":-5},{"dx":3,"dy":-2},{"dx":4,"dy":-2},{"dx":6,"dy":-4},{"dx":5,"dy":-2},{"dx":5,"dy":-4},{"dx":11,"dy":-7},{"dx":8,"dy":-5},{"dx":8,"dy":-5},{"dx":10,"dy":-8},{"dx":5,"dy":-4},{"dx":5,"dy":-4},{"dx":3,"dy":-3},{"dx":4,"dy":-4},{"dx":3,"dy":-3},{"dx":7,"dy":-8},{"dx":2,"dy":-5},{"dx":0,"dy":-2},{"dx":3,"dy":-6},{"dx":1,"dy":-5},{"dx":1,"dy":-7},{"dx":1,"dy":-7},{"dx":0,"dy":-6},{"dx":-1,"dy":-6},{"dx":-2,"dy":-5},{"dx":-1,"dy":-6},{"dx":-3,"dy":-5},{"dx":-1,"dy":-1},{"dx":-3,"dy":-4},{"dx":0,"dy":0},{"dx":-8,"dy":-8},{"dx":-3,"dy":-3},{"dx":-6,"dy":-4},{"dx":-6,"dy":-4},{"dx":-11,"dy":-6},{"dx":-8,"dy":-5},{"dx":-14,"dy":-7},{"dx":-7,"dy":-3},{"dx":-7,"dy":-4},{"dx":-13,"dy":-5},{"dx":-8,"dy":-4},{"dx":-10,"dy":-5},{"dx":-9,"dy":-5},{"dx":-10,"dy":-6},{"dx":-8,"dy":-5},{"dx":-11,"dy":-7},{"dx":-6,"dy":-3},{"dx":-4,"dy":-4},{"dx":-4,"dy":-3},{"dx":-2,"dy":-4},{"dx":-1,"dy":0},{"dx":-4,"dy":-5},{"dx":-1,"dy":-1},{"dx":0,"dy":-1},{"dx":-1,"dy":-1},{"dx":0,"dy":0},{"dx":0,"dy":-1},{"dx":0,"dy":-1},{"dx":2,"dy":-4},{"dx":5,"dy":-2},{"dx":16,"dy":-9},{"dx":10,"dy":-5},{"dx":11,"dy":-4},{"dx":16,"dy":-9},{"dx":5,"dy":-4},{"dx":5,"dy":-3},{"dx":5,"dy":-3},{"dx":1,"dy":-1},{"dx":0,"dy":0},{"dx":0,"dy":0},{"dx":0,"dy":0},{"dx":0,"dy":0},{"dx":0,"dy":0},{"dx":0,"dy":0},{"dx":0,"dy":0},{"dx":0,"dy":0},{"dx":0,"dy":0},{"dx":0,"dy":0},{"dx":0,"dy":0},{"dx":0,"dy":0},{"dx":0,"dy":0},{"dx":0,"dy":0},{"dx":0,"dy":0},{"dx":0,"dy":0},{"dx":0,"dy":0},{"dx":0,"dy":0},{"dx":0,"dy":0},{"dx":0,"dy":0},{"dx":0,"dy":0},{"dx":0,"dy":0},{"dx":0,"dy":0},{"dx":0,"dy":0},{"dx":0,"dy":0},{"dx":0,"dy":0},{"dx":0,"dy":0},{"dx":0,"dy":-11},{"dx":0,"dy":-20},{"dx":0,"dy":-14},{"dx":0,"dy":-13},{"dx":0,"dy":-15},{"dx":0,"dy":-6},{"dx":0,"dy":-4},{"dx":0,"dy":-1},{"dx":0,"dy":-6},{"dx":0,"dy":-1},{"dx":-1,"dy":-6},{"dx":0,"dy":-1},{"dx":-1,"dy":-5},{"dx":-2,"dy":-6},{"dx":-2,"dy":-7},{"dx":-1,"dy":-5},{"dx":0,"dy":-7},{"dx":0,"dy":-14},{"dx":-1,"dy":-6},{"dx":0,"dy":-1},{"dx":-1,"dy":-7},{"dx":-1,"dy":-3},{"dx":0,"dy":0},{"dx":0,"dy":0},{"dx":0,"dy":0},{"dx":0,"dy":0},{"dx":0,"dy":0},{"dx":0,"dy":0},{"dx":0,"dy":0},{"dx":0,"dy":0},{"dx":1,"dy":0},{"dx":0,"dy":0},{"dx":1,"dy":0},{"dx":0,"dy":0},{"dx":0,"dy":0},{"dx":0,"dy":0},{"dx":0,"dy":0},{"dx":0,"dy":0},{"dx":0,"dy":0},{"dx":2,"dy":0},{"dx":0,"dy":0},{"dx":0,"dy":0},{"dx":0,"dy":0},{"dx":0,"dy":0},{"dx":0,"dy":0},{"dx":0,"dy":0},{"dx":0,"dy":0},{"dx":0,"dy":0},{"dx":4,"dy":0},{"dx":5,"dy":0},{"dx":4,"dy":0},{"dx":5,"dy":0},{"dx":6,"dy":0},{"dx":5,"dy":0},{"dx":4,"dy":0},{"dx":6,"dy":0},{"dx":11,"dy":0},{"dx":7,"dy":0},{"dx":6,"dy":0},{"dx":15,"dy":0},{"dx":11,"dy":0},{"dx":10,"dy":0},{"dx":7,"dy":0},{"dx":1,"dy":0},{"dx":1,"dy":0},{"dx":0,"dy":0},{"dx":0,"dy":0},{"dx":0,"dy":0},{"dx":0,"dy":0},{"dx":-1,"dy":0},{"dx":-4,"dy":0},{"dx":-5,"dy":0},{"dx":-1,"dy":0},{"dx":-1,"dy":0},{"dx":-1,"dy":0},{"dx":0,"dy":0},{"dx":0,"dy":1},{"dx":0,"dy":5},{"dx":8,"dy":35},{"dx":13,"dy":34},{"dx":17,"dy":42},{"dx":23,"dy":58},{"dx":17,"dy":33},{"dx":18,"dy":22},{"dx":30,"dy":20},{"dx":26,"dy":9},{"dx":27,"dy":5},{"dx":45,"dy":2},{"dx":35,"dy":-1},{"dx":37,"dy":-3},{"dx":53,"dy":-6},{"dx":21,"dy":-3},{"dx":22,"dy":-3},{"dx":21,"dy":-2},{"dx":11,"dy":0},{"dx":11,"dy":0},{"dx":16,"dy":1},{"dx":5,"dy":0},{"dx":6,"dy":1},{"dx":5,"dy":1},{"dx":5,"dy":2},{"dx":1,"dy":0},{"dx":0,"dy":0},{"dx":1,"dy":0},{"dx":0,"dy":0},{"dx":0,"dy":0},{"dx":0,"dy":0},{"dx":0,"dy":0},{"dx":0,"dy":0},{"dx":0,"dy":0},{"dx":0,"dy":0},{"dx":0,"dy":0},{"dx":0,"dy":0},{"dx":0,"dy":0},{"dx":11,"dy":2},{"dx":42,"dy":10},{"dx":49,"dy":11},{"dx":58,"dy":18},{"dx":31,"dy":8},{"dx":21,"dy":7},{"dx":28,"dy":6},{"dx":15,"dy":4},{"dx":18,"dy":2},{"dx":19,"dy":3},{"dx":10,"dy":1},{"dx":11,"dy":1},{"dx":16,"dy":0},{"dx":8,"dy":0},{"dx":7,"dy":0},{"dx":0,"dy":0},{"dx":0,"dy":0},{"dx":0,"dy":0},{"dx":0,"dy":0},{"dx":0,"dy":0},{"dx":0,"dy":0},{"dx":0,"dy":0},{"dx":0,"dy":0},{"dx":0,"dy":0},{"dx":0,"dy":0},{"dx":0,"dy":0},{"dx":0,"dy":0},{"dx":0,"dy":0},{"dx":0,"dy":0},{"dx":0,"dy":0},{"dx":0,"dy":0},{"dx":0,"dy":0},{"dx":0,"dy":0},{"dx":0,"dy":0},{"dx":0,"dy":0},{"dx":0,"dy":0},{"dx":0,"dy":0},{"dx":0,"dy":0},{"dx":0,"dy":0},{"dx":-19,"dy":5},{"dx":-15,"dy":3},{"dx":-13,"dy":3},{"dx":-10,"dy":1},{"dx":-7,"dy":2},{"dx":-8,"dy":2},{"dx":-6,"dy":0},{"dx":-13,"dy":3},{"dx":-6,"dy":1},{"dx":-7,"dy":0},{"dx":-6,"dy":1},{"dx":-7,"dy":1},{"dx":-6,"dy":0},{"dx":-10,"dy":2},{"dx":-5,"dy":1},{"dx":-4,"dy":1},{"dx":-7,"dy":2},{"dx":-7,"dy":2},{"dx":-6,"dy":3},{"dx":-6,"dy":3},{"dx":-4,"dy":2},{"dx":0,"dy":0},{"dx":-1,"dy":5},{"dx":3,"dy":19},{"dx":3,"dy":32},{"dx":0,"dy":53},{"dx":-1,"dy":35},{"dx":0,"dy":30},{"dx":0,"dy":33},{"dx":0,"dy":15},{"dx":-2,"dy":15},{"dx":-1,"dy":7},{"dx":0,"dy":13},{"dx":0,"dy":0},{"dx":0,"dy":0},{"dx":0,"dy":0},{"dx":0,"dy":0},{"dx":0,"dy":0},{"dx":0,"dy":0},{"dx":0,"dy":0},{"dx":0,"dy":0},{"dx":0,"dy":0},{"dx":0,"dy":0},{"dx":0,"dy":0},{"dx":0,"dy":0},{"dx":0,"dy":0},{"dx":0,"dy":8},{"dx":-1,"dy":22},{"dx":-3,"dy":24},{"dx":-6,"dy":29},{"dx":-3,"dy":18},{"dx":-4,"dy":22},{"dx":-9,"dy":29},{"dx":-6,"dy":22},{"dx":-8,"dy":18},{"dx":-22,"dy":30},{"dx":-20,"dy":29},{"dx":-20,"dy":26},{"dx":-40,"dy":42},{"dx":-29,"dy":25},{"dx":-23,"dy":19},{"dx":-31,"dy":22},{"dx":-15,"dy":11},{"dx":-8,"dy":6},{"dx":-4,"dy":3},{"dx":0,"dy":0},{"dx":-2,"dy":1},{"dx":0,"dy":0},{"dx":0,"dy":0},{"dx":0,"dy":0},{"dx":0,"dy":0},{"dx":0,"dy":0},{"dx":0,"dy":0},{"dx":0,"dy":0},{"dx":0,"dy":0},{"dx":0,"dy":0},{"dx":0,"dy":0},{"dx":0,"dy":0},{"dx":0,"dy":0},{"dx":-6,"dy":5},{"dx":-20,"dy":21},{"dx":-13,"dy":18},{"dx":-18,"dy":0},{"dx":-10,"dy":0},{"dx":-8,"dy":0},{"dx":-9,"dy":0},{"dx":-3,"dy":0},{"dx":-4,"dy":0},{"dx":-2,"dy":0},{"dx":-3,"dy":0},{"dx":-1,"dy":0},{"dx":0,"dy":0},{"dx":0,"dy":0},{"dx":-1,"dy":0},{"dx":-2,"dy":0},{"dx":-1,"dy":0},{"dx":0,"dy":0},{"dx":0,"dy":0},{"dx":0,"dy":0},{"dx":-1,"dy":0},{"dx":-12,"dy":0},{"dx":-12,"dy":-1},{"dx":-18,"dy":-2},{"dx":-15,"dy":-3},{"dx":-28,"dy":-5},{"dx":-14,"dy":-3},{"dx":-13,"dy":-3},{"dx":-21,"dy":-9},{"dx":-14,"dy":-7},{"dx":-11,"dy":-6},{"dx":-14,"dy":-8},{"dx":-8,"dy":-4},{"dx":-5,"dy":-4},{"dx":-12,"dy":-7},{"dx":-9,"dy":-7},{"dx":-10,"dy":-9},{"dx":-7,"dy":-8},{"dx":-4,"dy":-7},{"dx":0,"dy":0},{"dx":0,"dy":-4},{"dx":0,"dy":0},{"dx":0,"dy":0},{"dx":0,"dy":0},{"dx":0,"dy":0},{"dx":0,"dy":0},{"dx":0,"dy":0},{"dx":0,"dy":0},{"dx":0,"dy":0},{"dx":0,"dy":0},{"dx":0,"dy":0},{"dx":0,"dy":0},{"dx":-13,"dy":-3},{"dx":-41,"dy":-10},{"dx":-61,"dy":-13},{"dx":-103,"dy":-25},{"dx":-73,"dy":-20},{"dx":-75,"dy":-15},{"dx":-84,"dy":-14}],"trial_type":"plugin-moving-dots-2","trial_index":12,"plugin_version":"0.0.1","time_elapsed":65569},{"task":"fixation","rt":2539,"stimulus":"<div style=\"font-size:60px;\">+</div>","response":" ","trial_type":"html-keyboard-response","trial_index":13,"plugin_version":"2.1.0","time_elapsed":68111},{"task":"movingdots","control_change":0,"mouse_data":[{"dx":0,"dy":0},{"dx":0,"dy":0},{"dx":0,"dy":0},{"dx":0,"dy":0},{"dx":0,"dy":0},{"dx":0,"dy":0},{"dx":0,"dy":0},{"dx":0,"dy":0},{"dx":0,"dy":0},{"dx":0,"dy":0},{"dx":0,"dy":0},{"dx":0,"dy":0},{"dx":0,"dy":0},{"dx":0,"dy":0},{"dx":0,"dy":0},{"dx":0,"dy":0},{"dx":0,"dy":0},{"dx":0,"dy":0},{"dx":0,"dy":0},{"dx":0,"dy":0},{"dx":0,"dy":0},{"dx":0,"dy":0},{"dx":0,"dy":0},{"dx":0,"dy":0},{"dx":0,"dy":0},{"dx":0,"dy":0},{"dx":0,"dy":0},{"dx":0,"dy":0},{"dx":0,"dy":0},{"dx":0,"dy":0},{"dx":0,"dy":0},{"dx":0,"dy":0},{"dx":0,"dy":0},{"dx":0,"dy":0},{"dx":11,"dy":-4},{"dx":5,"dy":-2},{"dx":8,"dy":-2},{"dx":12,"dy":-3},{"dx":5,"dy":-1},{"dx":4,"dy":0},{"dx":6,"dy":0},{"dx":6,"dy":0},{"dx":6,"dy":0},{"dx":5,"dy":0},{"dx":5,"dy":0},{"dx":4,"dy":0},{"dx":5,"dy":0},{"dx":4,"dy":0},{"dx":6,"dy":0},{"dx":11,"dy":1},{"dx":5,"dy":1},{"dx":10,"dy":1},{"dx":7,"dy":1},{"dx":6,"dy":2},{"dx":5,"dy":1},{"dx":11,"dy":2},{"dx":9,"dy":1},{"dx":7,"dy":0},{"dx":7,"dy":1},{"dx":5,"dy":1},{"dx":6,"dy":0},{"dx":14,"dy":3},{"dx":7,"dy":1},{"dx":6,"dy":1},{"dx":7,"dy":1},{"dx":5,"dy":0},{"dx":5,"dy":0},{"dx":5,"dy":0},{"dx":3,"dy":0},{"dx":1,"dy":0},{"dx":1,"dy":0},{"dx":4,"dy":0},{"dx":1,"dy":0},{"dx":5,"dy":0},{"dx":3,"dy":-1},{"dx":6,"dy":0},{"dx":1,"dy":-1},{"dx":1,"dy":0},{"dx":0,"dy":0},{"dx":0,"dy":0},{"dx":0,"dy":0},{"dx":0,"dy":0},{"dx":1,"dy":0},{"dx":0,"dy":0},{"dx":0,"dy":0},{"dx":0,"dy":0},{"dx":0,"dy":0},{"dx":0,"dy":0},{"dx":0,"dy":0},{"dx":0,"dy":0},{"dx":0,"dy":0},{"dx":0,"dy":0},{"dx":0,"dy":0},{"dx":0,"dy":0},{"dx":0,"dy":0},{"dx":0,"dy":0},{"dx":0,"dy":0},{"dx":0,"dy":0},{"dx":0,"dy":0},{"dx":0,"dy":0},{"dx":0,"dy":0},{"dx":0,"dy":0},{"dx":0,"dy":0},{"dx":0,"dy":0},{"dx":0,"dy":0},{"dx":0,"dy":0},{"dx":0,"dy":0},{"dx":0,"dy":0},{"dx":0,"dy":0},{"dx":0,"dy":0},{"dx":0,"dy":0},{"dx":0,"dy":0},{"dx":0,"dy":0},{"dx":0,"dy":0},{"dx":0,"dy":0},{"dx":0,"dy":0},{"dx":0,"dy":0},{"dx":0,"dy":0},{"dx":0,"dy":0},{"dx":0,"dy":0},{"dx":0,"dy":0},{"dx":0,"dy":0},{"dx":0,"dy":0},{"dx":0,"dy":0},{"dx":0,"dy":0},{"dx":0,"dy":0},{"dx":0,"dy":0},{"dx":0,"dy":0},{"dx":0,"dy":0},{"dx":0,"dy":0},{"dx":0,"dy":0},{"dx":0,"dy":0},{"dx":0,"dy":0},{"dx":0,"dy":0},{"dx":0,"dy":0},{"dx":0,"dy":0},{"dx":0,"dy":0},{"dx":0,"dy":0},{"dx":0,"dy":0},{"dx":0,"dy":0},{"dx":0,"dy":0},{"dx":0,"dy":0},{"dx":0,"dy":0},{"dx":0,"dy":0},{"dx":0,"dy":0},{"dx":0,"dy":0},{"dx":0,"dy":0},{"dx":0,"dy":0},{"dx":0,"dy":0},{"dx":0,"dy":0},{"dx":0,"dy":0},{"dx":0,"dy":0},{"dx":0,"dy":0},{"dx":0,"dy":0},{"dx":0,"dy":0},{"dx":0,"dy":0},{"dx":0,"dy":0},{"dx":0,"dy":0},{"dx":0,"dy":0},{"dx":0,"dy":0},{"dx":0,"dy":0},{"dx":0,"dy":0},{"dx":0,"dy":0},{"dx":0,"dy":0},{"dx":0,"dy":0},{"dx":0,"dy":0},{"dx":0,"dy":0},{"dx":0,"dy":0},{"dx":0,"dy":0},{"dx":0,"dy":0},{"dx":0,"dy":0},{"dx":0,"dy":0},{"dx":0,"dy":0},{"dx":0,"dy":0},{"dx":0,"dy":0},{"dx":0,"dy":0},{"dx":0,"dy":0},{"dx":0,"dy":0},{"dx":0,"dy":0},{"dx":0,"dy":0},{"dx":0,"dy":0},{"dx":0,"dy":0},{"dx":0,"dy":0},{"dx":0,"dy":0},{"dx":-5,"dy":-1},{"dx":-9,"dy":0},{"dx":-12,"dy":-1},{"dx":-6,"dy":-1},{"dx":-5,"dy":0},{"dx":-5,"dy":-2},{"dx":-6,"dy":-1},{"dx":-4,"dy":0},{"dx":-4,"dy":-3},{"dx":-1,"dy":0},{"dx":0,"dy":0},{"dx":0,"dy":0},{"dx":0,"dy":0},{"dx":0,"dy":0},{"dx":0,"dy":0},{"dx":0,"dy":0},{"dx":0,"dy":0},{"dx":0,"dy":0},{"dx":0,"dy":0},{"dx":0,"dy":0},{"dx":0,"dy":0},{"dx":0,"dy":0},{"dx":0,"dy":0},{"dx":-24,"dy":0},{"dx":-17,"dy":-2},{"dx":-16,"dy":0},{"dx":-13,"dy":-1},{"dx":-19,"dy":-1},{"dx":-10,"dy":-1},{"dx":-10,"dy":-2},{"dx":-10,"dy":-2},{"dx":-7,"dy":-1},{"dx":-6,"dy":-1},{"dx":-9,"dy":-3},{"dx":-1,"dy":-1},{"dx":-4,"dy":-1},{"dx":-1,"dy":-1},{"dx":-1,"dy":0},{"dx":0,"dy":0},{"dx":0,"dy":0},{"dx":-1,"dy":-1},{"dx":0,"dy":0},{"dx":0,"dy":-1},{"dx":0,"dy":0},{"dx":0,"dy":0},{"dx":0,"dy":0},{"dx":0,"dy":0},{"dx":0,"dy":0},{"dx":0,"dy":0},{"dx":0,"dy":0},{"dx":0,"dy":0},{"dx":0,"dy":0},{"dx":0,"dy":0},{"dx":0,"dy":0},{"dx":-1,"dy":-7},{"dx":-2,"dy":-12},{"dx":-3,"dy":-12},{"dx":-7,"dy":-23},{"dx":-3,"dy":-13},{"dx":-2,"dy":-7},{"dx":-4,"dy":-16},{"dx":0,"dy":-10},{"dx":-1,"dy":-6},{"dx":0,"dy":-17},{"dx":0,"dy":-6},{"dx":0,"dy":-8},{"dx":1,"dy":-17},{"dx":1,"dy":-8},{"dx":0,"dy":-7},{"dx":1,"dy":-6},{"dx":0,"dy":-7},{"dx":0,"dy":-9},{"dx":-1,"dy":-13},{"dx":0,"dy":-2},{"dx":0,"dy":-6},{"dx":0,"dy":-5},{"dx":0,"dy":-6},{"dx":0,"dy":0},{"dx":0,"dy":-1},{"dx":0,"dy":-1},{"dx":0,"dy":-7},{"dx":0,"dy":-5},{"dx":0,"dy":-1},{"dx":0,"dy":-1},{"dx":0,"dy":-3},{"dx":0,"dy":-1},{"dx":0,"dy":-1},{"dx":0,"dy":0},{"dx":0,"dy":-1},{"dx":0,"dy":0},{"dx":0,"dy":-1},{"dx":0,"dy":-2},{"dx":0,"dy":-5},{"dx":0,"dy":-1},{"dx":0,"dy":-2},{"dx":0,"dy":-1},{"dx":-1,"dy":-6},{"dx":0,"dy":-1},{"dx":0,"dy":-5},{"dx":-1,"dy":-2},{"dx":-1,"dy":-5},{"dx":0,"dy":-5},{"dx":0,"dy":0},{"dx":-1,"dy":0},{"dx":0,"dy":0},{"dx":0,"dy":0},{"dx":0,"dy":0},{"dx":0,"dy":0},{"dx":0,"dy":0},{"dx":0,"dy":0},{"dx":0,"dy":0},{"dx":0,"dy":0},{"dx":0,"dy":0},{"dx":0,"dy":0},{"dx":0,"dy":0},{"dx":0,"dy":0},{"dx":0,"dy":0},{"dx":0,"dy":0},{"dx":0,"dy":0},{"dx":0,"dy":0},{"dx":0,"dy":0},{"dx":0,"dy":0},{"dx":0,"dy":0},{"dx":0,"dy":0},{"dx":0,"dy":0},{"dx":0,"dy":0},{"dx":3,"dy":0},{"dx":8,"dy":0},{"dx":4,"dy":0},{"dx":2,"dy":0},{"dx":2,"dy":0},{"dx":0,"dy":0},{"dx":0,"dy":0},{"dx":-2,"dy":0},{"dx":-2,"dy":0},{"dx":-3,"dy":0},{"dx":-2,"dy":0},{"dx":-1,"dy":0},{"dx":-1,"dy":0},{"dx":0,"dy":0},{"dx":0,"dy":0},{"dx":0,"dy":0},{"dx":0,"dy":0},{"dx":1,"dy":10},{"dx":5,"dy":18},{"dx":5,"dy":46},{"dx":3,"dy":19},{"dx":0,"dy":12},{"dx":-1,"dy":9},{"dx":-1,"dy":5},{"dx":-2,"dy":7},{"dx":-2,"dy":5},{"dx":-2,"dy":6},{"dx":-2,"dy":4},{"dx":-4,"dy":11},{"dx":0,"dy":8},{"dx":0,"dy":6},{"dx":2,"dy":5},{"dx":2,"dy":5},{"dx":11,"dy":5},{"dx":25,"dy":2},{"dx":18,"dy":0},{"dx":19,"dy":0},{"dx":31,"dy":-1},{"dx":17,"dy":-1},{"dx":13,"dy":-1},{"dx":22,"dy":-1},{"dx":12,"dy":-2},{"dx":11,"dy":0},{"dx":17,"dy":0},{"dx":8,"dy":0},{"dx":7,"dy":1},{"dx":7,"dy":1},{"dx":0,"dy":0},{"dx":0,"dy":0},{"dx":0,"dy":0},{"dx":0,"dy":0},{"dx":0,"dy":0},{"dx":0,"dy":0},{"dx":0,"dy":0},{"dx":0,"dy":0},{"dx":0,"dy":0},{"dx":0,"dy":0},{"dx":0,"dy":0},{"dx":0,"dy":0},{"dx":0,"dy":0},{"dx":0,"dy":0},{"dx":0,"dy":0},{"dx":0,"dy":0},{"dx":0,"dy":0},{"dx":0,"dy":0},{"dx":0,"dy":0},{"dx":0,"dy":0},{"dx":0,"dy":0},{"dx":0,"dy":0},{"dx":0,"dy":0},{"dx":0,"dy":0},{"dx":0,"dy":0},{"dx":0,"dy":0},{"dx":0,"dy":0},{"dx":-21,"dy":0},{"dx":-14,"dy":2},{"dx":-19,"dy":2},{"dx":-26,"dy":3},{"dx":-15,"dy":2},{"dx":-14,"dy":0},{"dx":-17,"dy":1},{"dx":-12,"dy":0},{"dx":-13,"dy":0},{"dx":-12,"dy":0},{"dx":-4,"dy":0},{"dx":-6,"dy":0},{"dx":-6,"dy":0},{"dx":-3,"dy":0},{"dx":-7,"dy":1},{"dx":-9,"dy":2},{"dx":-11,"dy":4},{"dx":-10,"dy":3},{"dx":-15,"dy":7},{"dx":-11,"dy":3},{"dx":-11,"dy":5},{"dx":-18,"dy":6},{"dx":-11,"dy":4},{"dx":-12,"dy":4},{"dx":-20,"dy":6},{"dx":-13,"dy":5},{"dx":-14,"dy":6},{"dx":-23,"dy":7},{"dx":-12,"dy":2},{"dx":-13,"dy":2},{"dx":-16,"dy":1},{"dx":-8,"dy":-1},{"dx":-6,"dy":-3},{"dx":0,"dy":0},{"dx":-1,"dy":-1},{"dx":0,"dy":0},{"dx":0,"dy":0},{"dx":0,"dy":0},{"dx":0,"dy":0},{"dx":0,"dy":0},{"dx":0,"dy":0},{"dx":0,"dy":0},{"dx":0,"dy":0},{"dx":0,"dy":0},{"dx":0,"dy":0},{"dx":0,"dy":0},{"dx":0,"dy":0},{"dx":0,"dy":0},{"dx":-7,"dy":0},{"dx":-16,"dy":3},{"dx":-10,"dy":3},{"dx":-10,"dy":3},{"dx":-13,"dy":7},{"dx":-7,"dy":4},{"dx":-5,"dy":3},{"dx":-5,"dy":4},{"dx":-5,"dy":4},{"dx":-4,"dy":3},{"dx":-7,"dy":5},{"dx":-4,"dy":3},{"dx":-1,"dy":0},{"dx":-8,"dy":6},{"dx":-4,"dy":2},{"dx":-6,"dy":3},{"dx":-7,"dy":3},{"dx":-10,"dy":6},{"dx":-7,"dy":3},{"dx":-13,"dy":9}],"trial_type":"plugin-moving-dots-2","trial_index":14,"plugin_version":"0.0.1","time_elapsed":75619},{"task":"fixation","rt":8520,"stimulus":"<div style=\"font-size:60px;\">+</div>","response":" ","trial_type":"html-keyboard-response","trial_index":15,"plugin_version":"2.1.0","time_elapsed":84142},{"task":"movingdots","control_change":0,"mouse_data":[{"dx":0,"dy":0},{"dx":0,"dy":0},{"dx":0,"dy":0},{"dx":0,"dy":0},{"dx":0,"dy":0},{"dx":0,"dy":0},{"dx":0,"dy":0},{"dx":0,"dy":0},{"dx":0,"dy":0},{"dx":0,"dy":0},{"dx":0,"dy":0},{"dx":0,"dy":0},{"dx":0,"dy":0},{"dx":0,"dy":0},{"dx":0,"dy":0},{"dx":0,"dy":0},{"dx":0,"dy":0},{"dx":0,"dy":0},{"dx":0,"dy":0},{"dx":0,"dy":0},{"dx":0,"dy":0},{"dx":0,"dy":0},{"dx":0,"dy":0},{"dx":0,"dy":0},{"dx":0,"dy":0},{"dx":0,"dy":0},{"dx":0,"dy":0},{"dx":0,"dy":0},{"dx":0,"dy":0},{"dx":0,"dy":0},{"dx":0,"dy":0},{"dx":0,"dy":0},{"dx":0,"dy":0},{"dx":0,"dy":0},{"dx":0,"dy":0},{"dx":0,"dy":0},{"dx":0,"dy":0},{"dx":0,"dy":0},{"dx":0,"dy":0},{"dx":0,"dy":0},{"dx":0,"dy":0},{"dx":-5,"dy":-1},{"dx":-8,"dy":-2},{"dx":-7,"dy":-3},{"dx":-14,"dy":-5},{"dx":-8,"dy":-3},{"dx":-6,"dy":-2},{"dx":-5,"dy":-2},{"dx":-5,"dy":-2},{"dx":-4,"dy":-1},{"dx":-8,"dy":-3},{"dx":-4,"dy":-2},{"dx":-5,"dy":-1},{"dx":-4,"dy":-2},{"dx":-1,"dy":0},{"dx":-4,"dy":-2},{"dx":-5,"dy":-2},{"dx":-4,"dy":-2},{"dx":-5,"dy":-3},{"dx":-5,"dy":-4},{"dx":-4,"dy":-2},{"dx":-3,"dy":-3},{"dx":-7,"dy":-7},{"dx":-3,"dy":-3},{"dx":-3,"dy":-3},{"dx":-4,"dy":-3},{"dx":-5,"dy":-4},{"dx":0,"dy":-1},{"dx":-5,"dy":-3},{"dx":-4,"dy":-2},{"dx":-1,"dy":0},{"dx":-4,"dy":-3},{"dx":-5,"dy":-3},{"dx":0,"dy":0},{"dx":-2,"dy":0},{"dx":-1,"dy":-1},{"dx":-4,"dy":-2},{"dx":-1,"dy":-1},{"dx":-2,"dy":-5},{"dx":-1,"dy":-7},{"dx":0,"dy":-5},{"dx":2,"dy":-7},{"dx":4,"dy":-7},{"dx":5,"dy":-5},{"dx":7,"dy":-8},{"dx":3,"dy":-4},{"dx":1,"dy":0},{"dx":1,"dy":-2},{"dx":3,"dy":-3},{"dx":1,"dy":-1},{"dx":9,"dy":-6},{"dx":6,"dy":-2},{"dx":5,"dy":-1},{"dx":4,"dy":-1},{"dx":5,"dy":0},{"dx":5,"dy":-1},{"dx":4,"dy":-1},{"dx":7,"dy":0},{"dx":7,"dy":-1},{"dx":14,"dy":0},{"dx":7,"dy":2},{"dx":6,"dy":1},{"dx":9,"dy":3},{"dx":7,"dy":4},{"dx":5,"dy":4},{"dx":8,"dy":10},{"dx":5,"dy":6},{"dx":4,"dy":7},{"dx":4,"dy":11},{"dx":2,"dy":8},{"dx":4,"dy":9},{"dx":5,"dy":14},{"dx":1,"dy":7},{"dx":1,"dy":7},{"dx":1,"dy":6},{"dx":1,"dy":5},{"dx":1,"dy":5},{"dx":0,"dy":1},{"dx":1,"dy":5},{"dx":0,"dy":6},{"dx":-2,"dy":6},{"dx":-1,"dy":5},{"dx":-2,"dy":4},{"dx":-4,"dy":9},{"dx":-3,"dy":4},{"dx":-3,"dy":4},{"dx":-4,"dy":4},{"dx":-3,"dy":3},{"dx":-4,"dy":3},{"dx":-9,"dy":7},{"dx":-4,"dy":3},{"dx":-4,"dy":4},{"dx":-5,"dy":3},{"dx":-4,"dy":3},{"dx":-5,"dy":3},{"dx":-9,"dy":5},{"dx":-5,"dy":2},{"dx":-4,"dy":2},{"dx":-7,"dy":2},{"dx":-5,"dy":1},{"dx":-7,"dy":0},{"dx":-13,"dy":2},{"dx":-5,"dy":0},{"dx":-4,"dy":0},{"dx":-4,"dy":1},{"dx":-6,"dy":0},{"dx":-5,"dy":0},{"dx":0,"dy":0},{"dx":-5,"dy":-1},{"dx":-4,"dy":-1},{"dx":-6,"dy":-3},{"dx":-1,"dy":0},{"dx":-4,"dy":-3},{"dx":-4,"dy":-3},{"dx":-3,"dy":-4},{"dx":-1,"dy":0},{"dx":-4,"dy":-3},{"dx":-4,"dy":-3},{"dx":-6,"dy":-3},{"dx":-4,"dy":-3},{"dx":-6,"dy":-3},{"dx":-5,"dy":-3},{"dx":-4,"dy":-2},{"dx":-4,"dy":-2},{"dx":-4,"dy":-2},{"dx":-4,"dy":-2},{"dx":-6,"dy":-3},{"dx":-3,"dy":-2},{"dx":-4,"dy":-4},{"dx":-4,"dy":-3},{"dx":-4,"dy":-4},{"dx":-4,"dy":-3},{"dx":-7,"dy":-7},{"dx":-4,"dy":-1},{"dx":-5,"dy":-3},{"dx":-4,"dy":-2},{"dx":-6,"dy":-1},{"dx":-12,"dy":-3},{"dx":-20,"dy":0},{"dx":-14,"dy":-1},{"dx":-12,"dy":0},{"dx":-18,"dy":2},{"dx":-10,"dy":2},{"dx":-6,"dy":2},{"dx":-12,"dy":6},{"dx":-4,"dy":3},{"dx":-3,"dy":5},{"dx":-2,"dy":5},{"dx":-1,"dy":1},{"dx":-1,"dy":5},{"dx":0,"dy":1},{"dx":-1,"dy":0},{"dx":-1,"dy":1},{"dx":0,"dy":0},{"dx":0,"dy":0},{"dx":0,"dy":0},{"dx":0,"dy":0},{"dx":0,"dy":0},{"dx":0,"dy":0},{"dx":0,"dy":0},{"dx":0,"dy":0},{"dx":0,"dy":0},{"dx":0,"dy":0},{"dx":0,"dy":0},{"dx":0,"dy":0},{"dx":0,"dy":0},{"dx":0,"dy":0},{"dx":0,"dy":0},{"dx":0,"dy":0},{"dx":0,"dy":0},{"dx":0,"dy":0},{"dx":0,"dy":0},{"dx":0,"dy":0},{"dx":0,"dy":0},{"dx":0,"dy":0},{"dx":0,"dy":0},{"dx":0,"dy":0},{"dx":0,"dy":0},{"dx":-6,"dy":-6},{"dx":-3,"dy":-4},{"dx":-4,"dy":-4},{"dx":-4,"dy":-7},{"dx":-3,"dy":-6},{"dx":-4,"dy":-7},{"dx":-9,"dy":-11},{"dx":-5,"dy":-7},{"dx":-4,"dy":-5},{"dx":-4,"dy":-7},{"dx":-3,"dy":-6},{"dx":-3,"dy":-5},{"dx":-6,"dy":-9},{"dx":-3,"dy":-4},{"dx":-3,"dy":-5},{"dx":-5,"dy":-9},{"dx":-5,"dy":-7},{"dx":-4,"dy":-7},{"dx":-9,"dy":-11},{"dx":-6,"dy":-6},{"dx":-4,"dy":-5},{"dx":-9,"dy":-12},{"dx":-5,"dy":-6},{"dx":-5,"dy":-6},{"dx":-5,"dy":-5},{"dx":-3,"dy":-4},{"dx":-3,"dy":-4},{"dx":-3,"dy":-5},{"dx":-3,"dy":-5},{"dx":-2,"dy":-7},{"dx":-1,"dy":-6},{"dx":0,"dy":0},{"dx":0,"dy":-4},{"dx":3,"dy":-5},{"dx":3,"dy":-4},{"dx":4,"dy":-4},{"dx":8,"dy":-7},{"dx":4,"dy":-3},{"dx":5,"dy":-2},{"dx":4,"dy":-3},{"dx":5,"dy":-3},{"dx":6,"dy":-3},{"dx":10,"dy":-3},{"dx":7,"dy":-1},{"dx":5,"dy":-1},{"dx":5,"dy":0},{"dx":3,"dy":0},{"dx":6,"dy":0},{"dx":5,"dy":1},{"dx":5,"dy":2},{"dx":4,"dy":2},{"dx":4,"dy":3},{"dx":7,"dy":6},{"dx":4,"dy":3},{"dx":2,"dy":3},{"dx":4,"dy":5},{"dx":0,"dy":1},{"dx":3,"dy":5},{"dx":2,"dy":5},{"dx":1,"dy":6},{"dx":0,"dy":1},{"dx":0,"dy":5},{"dx":-1,"dy":6},{"dx":-2,"dy":5},{"dx":-5,"dy":9},{"dx":-3,"dy":5},{"dx":-5,"dy":6},{"dx":-6,"dy":6},{"dx":-4,"dy":5},{"dx":-4,"dy":4},{"dx":-7,"dy":7},{"dx":-4,"dy":3},{"dx":-5,"dy":4},{"dx":-5,"dy":3},{"dx":-4,"dy":2},{"dx":-6,"dy":1},{"dx":-6,"dy":2},{"dx":-6,"dy":2},{"dx":-8,"dy":2},{"dx":-11,"dy":1},{"dx":-7,"dy":1},{"dx":-5,"dy":0},{"dx":-7,"dy":0},{"dx":-5,"dy":0},{"dx":-5,"dy":-1},{"dx":-7,"dy":-4},{"dx":-2,"dy":-3},{"dx":-5,"dy":-3},{"dx":-3,"dy":-4},{"dx":-2,"dy":-5},{"dx":-3,"dy":-6},{"dx":-4,"dy":-11},{"dx":-2,"dy":-5},{"dx":-1,"dy":-1},{"dx":-5,"dy":-9},{"dx":-1,"dy":-1},{"dx":-3,"dy":-4},{"dx":-5,"dy":-5},{"dx":-4,"dy":-4},{"dx":-3,"dy":-2},{"dx":-7,"dy":-6},{"dx":-4,"dy":-2},{"dx":-5,"dy":-3},{"dx":-5,"dy":-2},{"dx":-6,"dy":-1},{"dx":-5,"dy":-1},{"dx":-11,"dy":0},{"dx":-7,"dy":0},{"dx":-7,"dy":1},{"dx":-5,"dy":0},{"dx":-5,"dy":1},{"dx":-5,"dy":1},{"dx":-8,"dy":3},{"dx":-4,"dy":2},{"dx":-1,"dy":1},{"dx":-4,"dy":2},{"dx":-1,"dy":1},{"dx":-1,"dy":0},{"dx":-4,"dy":5},{"dx":0,"dy":1},{"dx":-3,"dy":4},{"dx":-3,"dy":6},{"dx":-4,"dy":8},{"dx":-2,"dy":6},{"dx":-1,"dy":4},{"dx":-1,"dy":5},{"dx":-1,"dy":6},{"dx":-1,"dy":4},{"dx":0,"dy":10},{"dx":0,"dy":6},{"dx":0,"dy":5},{"dx":0,"dy":8},{"dx":1,"dy":5},{"dx":1,"dy":6},{"dx":2,"dy":5},{"dx":2,"dy":7},{"dx":0,"dy":1},{"dx":3,"dy":12},{"dx":1,"dy":4},{"dx":1,"dy":1},{"dx":2,"dy":12},{"dx":1,"dy":6},{"dx":1,"dy":6},{"dx":1,"dy":5},{"dx":0,"dy":6},{"dx":1,"dy":6},{"dx":1,"dy":10},{"dx":0,"dy":5},{"dx":1,"dy":5},{"dx":1,"dy":6},{"dx":2,"dy":7},{"dx":1,"dy":5},{"dx":3,"dy":9},{"dx":3,"dy":4},{"dx":2,"dy":5},{"dx":4,"dy":4},{"dx":4,"dy":4},{"dx":4,"dy":4},{"dx":9,"dy":6},{"dx":4,"dy":3},{"dx":5,"dy":2},{"dx":5,"dy":2},{"dx":4,"dy":1},{"dx":6,"dy":3},{"dx":8,"dy":2},{"dx":5,"dy":2},{"dx":4,"dy":3},{"dx":4,"dy":2},{"dx":1,"dy":0},{"dx":4,"dy":3},{"dx":5,"dy":2},{"dx":5,"dy":2},{"dx":7,"dy":2},{"dx":5,"dy":2},{"dx":5,"dy":2},{"dx":4,"dy":1},{"dx":6,"dy":2},{"dx":5,"dy":2},{"dx":5,"dy":1},{"dx":11,"dy":3},{"dx":5,"dy":1},{"dx":4,"dy":2},{"dx":6,"dy":1},{"dx":6,"dy":2},{"dx":6,"dy":1},{"dx":12,"dy":2},{"dx":6,"dy":1},{"dx":7,"dy":1},{"dx":8,"dy":1},{"dx":8,"dy":0},{"dx":6,"dy":1},{"dx":5,"dy":0},{"dx":11,"dy":3},{"dx":8,"dy":1},{"dx":6,"dy":1},{"dx":8,"dy":1},{"dx":5,"dy":2},{"dx":5,"dy":1},{"dx":9,"dy":3},{"dx":5,"dy":2},{"dx":5,"dy":3},{"dx":5,"dy":2},{"dx":4,"dy":3},{"dx":4,"dy":2},{"dx":6,"dy":5},{"dx":4,"dy":4},{"dx":0,"dy":0},{"dx":4,"dy":4},{"dx":3,"dy":5},{"dx":4,"dy":3},{"dx":2,"dy":6},{"dx":1,"dy":0},{"dx":2,"dy":5},{"dx":2,"dy":4},{"dx":2,"dy":4},{"dx":0,"dy":0},{"dx":2,"dy":5},{"dx":3,"dy":4},{"dx":0,"dy":1},{"dx":3,"dy":5},{"dx":1,"dy":4},{"dx":0,"dy":1},{"dx":2,"dy":6},{"dx":0,"dy":5},{"dx":1,"dy":6},{"dx":0,"dy":6},{"dx":0,"dy":0},{"dx":0,"dy":5},{"dx":0,"dy":6},{"dx":0,"dy":1},{"dx":-2,"dy":6},{"dx":-2,"dy":6},{"dx":0,"dy":1},{"dx":-1,"dy":4},{"dx":-3,"dy":5}],"trial_type":"plugin-moving-dots-2","trial_index":16,"plugin_version":"0.0.1","time_elapsed":91654},{"task":"fixation","rt":1095,"stimulus":"<div style=\"font-size:60px;\">+</div>","response":" ","trial_type":"html-keyboard-response","trial_index":17,"plugin_version":"2.1.0","time_elapsed":92750},{"task":"movingdots","control_change":0,"mouse_data":[{"dx":0,"dy":0},{"dx":0,"dy":0},{"dx":0,"dy":0},{"dx":0,"dy":0},{"dx":0,"dy":0},{"dx":0,"dy":0},{"dx":0,"dy":0},{"dx":0,"dy":0},{"dx":0,"dy":0},{"dx":0,"dy":0},{"dx":0,"dy":0},{"dx":0,"dy":0},{"dx":0,"dy":0},{"dx":0,"dy":0},{"dx":0,"dy":0},{"dx":0,"dy":0},{"dx":0,"dy":0},{"dx":0,"dy":0},{"dx":0,"dy":0},{"dx":0,"dy":0},{"dx":0,"dy":0},{"dx":0,"dy":0},{"dx":0,"dy":0},{"dx":0,"dy":0},{"dx":0,"dy":0},{"dx":0,"dy":0},{"dx":0,"dy":0},{"dx":0,"dy":0},{"dx":0,"dy":0},{"dx":0,"dy":0},{"dx":0,"dy":0},{"dx":0,"dy":0},{"dx":0,"dy":0},{"dx":0,"dy":0},{"dx":0,"dy":0},{"dx":0,"dy":0},{"dx":0,"dy":0},{"dx":0,"dy":0},{"dx":0,"dy":0},{"dx":0,"dy":0},{"dx":0,"dy":0},{"dx":0,"dy":0},{"dx":0,"dy":0},{"dx":0,"dy":0},{"dx":0,"dy":0},{"dx":0,"dy":0},{"dx":0,"dy":0},{"dx":0,"dy":0},{"dx":0,"dy":0},{"dx":0,"dy":0},{"dx":0,"dy":0},{"dx":0,"dy":0},{"dx":0,"dy":0},{"dx":0,"dy":0},{"dx":0,"dy":0},{"dx":0,"dy":0},{"dx":0,"dy":0},{"dx":0,"dy":0},{"dx":0,"dy":0},{"dx":0,"dy":0},{"dx":0,"dy":0},{"dx":0,"dy":0},{"dx":0,"dy":0},{"dx":0,"dy":0},{"dx":0,"dy":0},{"dx":0,"dy":0},{"dx":0,"dy":0},{"dx":0,"dy":0},{"dx":0,"dy":0},{"dx":0,"dy":0},{"dx":0,"dy":0},{"dx":2,"dy":-2},{"dx":4,"dy":-3},{"dx":3,"dy":-4},{"dx":5,"dy":-5},{"dx":0,"dy":-1},{"dx":3,"dy":-4},{"dx":1,"dy":-1},{"dx":0,"dy":-1},{"dx":3,"dy":-3},{"dx":0,"dy":-1},{"dx":1,"dy":-5},{"dx":2,"dy":-5},{"dx":2,"dy":-5},{"dx":3,"dy":-6},{"dx":2,"dy":-4},{"dx":3,"dy":-6},{"dx":3,"dy":-5},{"dx":0,"dy":-1},{"dx":3,"dy":-4},{"dx":3,"dy":-5},{"dx":3,"dy":-5},{"dx":3,"dy":-4},{"dx":6,"dy":-9},{"dx":3,"dy":-4},{"dx":5,"dy":-4},{"dx":5,"dy":-5},{"dx":0,"dy":-1},{"dx":4,"dy":-4},{"dx":5,"dy":-4},{"dx":4,"dy":-2},{"dx":3,"dy":-2},{"dx":4,"dy":-3},{"dx":1,"dy":0},{"dx":5,"dy":-3},{"dx":5,"dy":-2},{"dx":5,"dy":-2},{"dx":4,"dy":-2},{"dx":9,"dy":-3},{"dx":5,"dy":-1},{"dx":4,"dy":-1},{"dx":4,"dy":-2},{"dx":0,"dy":0},{"dx":0,"dy":0},{"dx":0,"dy":0},{"dx":0,"dy":0},{"dx":0,"dy":0},{"dx":0,"dy":0},{"dx":1,"dy":0},{"dx":6,"dy":0},{"dx":11,"dy":0},{"dx":5,"dy":0},{"dx":7,"dy":0},{"dx":6,"dy":0},{"dx":5,"dy":1},{"dx":4,"dy":1},{"dx":6,"dy":2},{"dx":4,"dy":2},{"dx":4,"dy":3},{"dx":8,"dy":5},{"dx":4,"dy":2},{"dx":0,"dy":0},{"dx":4,"dy":3},{"dx":3,"dy":3},{"dx":4,"dy":4},{"dx":0,"dy":1},{"dx":3,"dy":3},{"dx":3,"dy":4},{"dx":1,"dy":1},{"dx":2,"dy":4},{"dx":3,"dy":3},{"dx":0,"dy":1},{"dx":3,"dy":4},{"dx":2,"dy":4},{"dx":4,"dy":5},{"dx":4,"dy":5},{"dx":0,"dy":0},{"dx":2,"dy":3},{"dx":3,"dy":4},{"dx":3,"dy":5},{"dx":0,"dy":0},{"dx":3,"dy":5},{"dx":2,"dy":4},{"dx":3,"dy":5},{"dx":2,"dy":4},{"dx":1,"dy":1},{"dx":3,"dy":5},{"dx":3,"dy":4},{"dx":4,"dy":3},{"dx":4,"dy":2},{"dx":7,"dy":5},{"dx":5,"dy":2},{"dx":5,"dy":2},{"dx":4,"dy":2},{"dx":3,"dy":2},{"dx":5,"dy":2},{"dx":10,"dy":3},{"dx":5,"dy":1},{"dx":5,"dy":1},{"dx":4,"dy":0},{"dx":5,"dy":1},{"dx":5,"dy":0},{"dx":9,"dy":1},{"dx":5,"dy":1},{"dx":1,"dy":0},{"dx":5,"dy":0},{"dx":5,"dy":0},{"dx":5,"dy":1},{"dx":5,"dy":0},{"dx":5,"dy":0},{"dx":5,"dy":0},{"dx":5,"dy":0},{"dx":5,"dy":0},{"dx":5,"dy":0},{"dx":5,"dy":-1},{"dx":4,"dy":0},{"dx":6,"dy":-2},{"dx":9,"dy":-1},{"dx":4,"dy":-1},{"dx":5,"dy":-1},{"dx":5,"dy":-1},{"dx":4,"dy":-2},{"dx":4,"dy":-1},{"dx":9,"dy":-3},{"dx":7,"dy":-2},{"dx":4,"dy":-1},{"dx":5,"dy":-3},{"dx":3,"dy":-1},{"dx":5,"dy":-3},{"dx":7,"dy":-2},{"dx":1,"dy":-1},{"dx":5,"dy":-3},{"dx":5,"dy":-3},{"dx":3,"dy":-3},{"dx":4,"dy":-3},{"dx":4,"dy":-4},{"dx":0,"dy":0},{"dx":4,"dy":-3},{"dx":7,"dy":-7},{"dx":5,"dy":-5},{"dx":3,"dy":-4},{"dx":4,"dy":-4},{"dx":3,"dy":-4},{"dx":3,"dy":-4},{"dx":6,"dy":-8},{"dx":3,"dy":-4},{"dx":3,"dy":-3},{"dx":3,"dy":-4},{"dx":3,"dy":-5},{"dx":2,"dy":-3},{"dx":3,"dy":-5},{"dx":5,"dy":-7},{"dx":1,"dy":-5},{"dx":1,"dy":-1},{"dx":2,"dy":-5},{"dx":2,"dy":-4},{"dx":0,"dy":-1},{"dx":1,"dy":-5},{"dx":1,"dy":-6},{"dx":0,"dy":-1},{"dx":0,"dy":-5},{"dx":0,"dy":-6},{"dx":0,"dy":0},{"dx":0,"dy":-7},{"dx":0,"dy":-1},{"dx":-1,"dy":-6},{"dx":-2,"dy":-6},{"dx":-1,"dy":-2},{"dx":-2,"dy":-13},{"dx":-2,"dy":-7},{"dx":-2,"dy":-6},{"dx":-3,"dy":-7},{"dx":-3,"dy":-6},{"dx":-2,"dy":-7},{"dx":-2,"dy":-7},{"dx":-3,"dy":-12},{"dx":-2,"dy":-5},{"dx":-2,"dy":-4},{"dx":-2,"dy":-7},{"dx":-1,"dy":-1},{"dx":-1,"dy":-5},{"dx":-2,"dy":-6},{"dx":-1,"dy":-5},{"dx":0,"dy":-2},{"dx":-1,"dy":-6},{"dx":0,"dy":-1},{"dx":2,"dy":-5},{"dx":5,"dy":-5},{"dx":3,"dy":-3},{"dx":5,"dy":-2},{"dx":7,"dy":-2},{"dx":6,"dy":-3},{"dx":6,"dy":-2},{"dx":6,"dy":-1},{"dx":14,"dy":-3},{"dx":5,"dy":-1},{"dx":14,"dy":-3},{"dx":6,"dy":-1},{"dx":7,"dy":-1},{"dx":8,"dy":-1},{"dx":7,"dy":0},{"dx":6,"dy":0},{"dx":9,"dy":0},{"dx":4,"dy":2},{"dx":5,"dy":1},{"dx":3,"dy":1},{"dx":6,"dy":4},{"dx":0,"dy":0},{"dx":4,"dy":2},{"dx":3,"dy":3},{"dx":3,"dy":5},{"dx":3,"dy":4},{"dx":3,"dy":5},{"dx":2,"dy":4},{"dx":5,"dy":8},{"dx":3,"dy":4},{"dx":3,"dy":5},{"dx":3,"dy":5},{"dx":3,"dy":5},{"dx":3,"dy":5},{"dx":2,"dy":5},{"dx":5,"dy":11},{"dx":2,"dy":7},{"dx":1,"dy":5},{"dx":2,"dy":5},{"dx":1,"dy":5},{"dx":1,"dy":6},{"dx":2,"dy":11},{"dx":1,"dy":5},{"dx":0,"dy":1},{"dx":3,"dy":12},{"dx":0,"dy":6},{"dx":1,"dy":6},{"dx":0,"dy":5},{"dx":0,"dy":5},{"dx":0,"dy":5},{"dx":0,"dy":11},{"dx":0,"dy":6},{"dx":0,"dy":6},{"dx":-1,"dy":6},{"dx":-1,"dy":5},{"dx":0,"dy":4},{"dx":-3,"dy":10},{"dx":-1,"dy":5},{"dx":-2,"dy":5},{"dx":-2,"dy":5},{"dx":-2,"dy":5},{"dx":-2,"dy":6},{"dx":-4,"dy":9},{"dx":-1,"dy":4},{"dx":-4,"dy":5},{"dx":-2,"dy":5},{"dx":-2,"dy":4},{"dx":-3,"dy":5},{"dx":-4,"dy":10},{"dx":-3,"dy":3},{"dx":-1,"dy":1},{"dx":-6,"dy":10},{"dx":-3,"dy":5},{"dx":-3,"dy":5},{"dx":-3,"dy":4},{"dx":-3,"dy":4},{"dx":-4,"dy":4},{"dx":-7,"dy":9},{"dx":-4,"dy":3},{"dx":-4,"dy":4},{"dx":-6,"dy":3},{"dx":-1,"dy":0},{"dx":-5,"dy":3},{"dx":-5,"dy":2},{"dx":-6,"dy":2},{"dx":-4,"dy":1},{"dx":-11,"dy":2},{"dx":-4,"dy":0},{"dx":-5,"dy":1},{"dx":-5,"dy":0},{"dx":-5,"dy":0},{"dx":-3,"dy":0},{"dx":-5,"dy":0},{"dx":-10,"dy":-1},{"dx":-6,"dy":0},{"dx":-6,"dy":-1},{"dx":-7,"dy":0},{"dx":-5,"dy":-1},{"dx":-6,"dy":-2},{"dx":-10,"dy":-2},{"dx":-6,"dy":-2},{"dx":-6,"dy":-2},{"dx":-6,"dy":-2},{"dx":-5,"dy":-2},{"dx":-5,"dy":-4},{"dx":-12,"dy":-4},{"dx":-4,"dy":-4},{"dx":-6,"dy":-3},{"dx":-5,"dy":-3},{"dx":-7,"dy":-2},{"dx":-5,"dy":-4},{"dx":-11,"dy":-7},{"dx":-6,"dy":-5},{"dx":-5,"dy":-4},{"dx":-4,"dy":-5},{"dx":-5,"dy":-5},{"dx":-5,"dy":-4},{"dx":-8,"dy":-9},{"dx":-5,"dy":-5},{"dx":-4,"dy":-5},{"dx":-4,"dy":-4},{"dx":-3,"dy":-5},{"dx":-3,"dy":-4},{"dx":-8,"dy":-8},{"dx":-4,"dy":-4},{"dx":-4,"dy":-4},{"dx":-4,"dy":-4},{"dx":-3,"dy":-3},{"dx":-4,"dy":-4},{"dx":-6,"dy":-8},{"dx":-3,"dy":-3},{"dx":-2,"dy":-4},{"dx":-5,"dy":-5},{"dx":-3,"dy":-3},{"dx":-3,"dy":-3},{"dx":-7,"dy":-8},{"dx":-3,"dy":-4},{"dx":-4,"dy":-4},{"dx":-4,"dy":-5},{"dx":-3,"dy":-5},{"dx":-5,"dy":-4},{"dx":-4,"dy":-5},{"dx":-3,"dy":-3},{"dx":-3,"dy":-4},{"dx":-6,"dy":-7},{"dx":-4,"dy":-3},{"dx":-2,"dy":-4},{"dx":-4,"dy":-4},{"dx":-4,"dy":-4},{"dx":-3,"dy":-4},{"dx":-9,"dy":-6},{"dx":-5,"dy":-3},{"dx":-6,"dy":-3},{"dx":-5,"dy":-3},{"dx":-4,"dy":-2},{"dx":-4,"dy":-2},{"dx":-6,"dy":-2},{"dx":-4,"dy":-1},{"dx":-4,"dy":-1},{"dx":-8,"dy":-1},{"dx":-1,"dy":0},{"dx":-6,"dy":-1},{"dx":-5,"dy":0},{"dx":-4,"dy":0},{"dx":-6,"dy":0},{"dx":-6,"dy":0},{"dx":0,"dy":0},{"dx":-4,"dy":0},{"dx":-5,"dy":1},{"dx":-6,"dy":1},{"dx":-5,"dy":2},{"dx":-4,"dy":1},{"dx":-6,"dy":1},{"dx":-4,"dy":1},{"dx":-6,"dy":1},{"dx":-6,"dy":2},{"dx":-6,"dy":2},{"dx":-5,"dy":1},{"dx":-4,"dy":1},{"dx":-5,"dy":2},{"dx":-10,"dy":2},{"dx":-3,"dy":2},{"dx":-5,"dy":2},{"dx":-3,"dy":2},{"dx":-4,"dy":2},{"dx":-6,"dy":2},{"dx":-8,"dy":6},{"dx":-4,"dy":2},{"dx":-4,"dy":3},{"dx":-4,"dy":2},{"dx":-3,"dy":2},{"dx":-4,"dy":2},{"dx":-9,"dy":4},{"dx":-4,"dy":2},{"dx":-5,"dy":2},{"dx":-3,"dy":2}],"trial_type":"plugin-moving-dots-2","trial_index":18,"plugin_version":"0.0.1","time_elapsed":100253},{"task":"fixation","rt":1935,"stimulus":"<div style=\"font-size:60px;\">+</div>","response":" ","trial_type":"html-keyboard-response","trial_index":19,"plugin_version":"2.1.0","time_elapsed":102189},{"task":"movingdots","control_change":0,"mouse_data":[{"dx":0,"dy":0},{"dx":0,"dy":0},{"dx":0,"dy":0},{"dx":0,"dy":0},{"dx":0,"dy":0},{"dx":0,"dy":0},{"dx":0,"dy":0},{"dx":0,"dy":0},{"dx":0,"dy":0},{"dx":0,"dy":0},{"dx":0,"dy":0},{"dx":0,"dy":0},{"dx":0,"dy":0},{"dx":0,"dy":0},{"dx":0,"dy":0},{"dx":0,"dy":0},{"dx":0,"dy":0},{"dx":0,"dy":0},{"dx":0,"dy":0},{"dx":0,"dy":0},{"dx":0,"dy":0},{"dx":0,"dy":0},{"dx":0,"dy":0},{"dx":0,"dy":0},{"dx":0,"dy":0},{"dx":0,"dy":0},{"dx":0,"dy":0},{"dx":0,"dy":0},{"dx":0,"dy":0},{"dx":0,"dy":0},{"dx":0,"dy":0},{"dx":0,"dy":0},{"dx":0,"dy":0},{"dx":0,"dy":0},{"dx":0,"dy":0},{"dx":0,"dy":0},{"dx":0,"dy":0},{"dx":0,"dy":0},{"dx":0,"dy":0},{"dx":0,"dy":0},{"dx":0,"dy":0},{"dx":0,"dy":0},{"dx":0,"dy":0},{"dx":0,"dy":0},{"dx":0,"dy":0},{"dx":0,"dy":0},{"dx":0,"dy":0},{"dx":0,"dy":0},{"dx":0,"dy":0},{"dx":0,"dy":0},{"dx":0,"dy":0},{"dx":0,"dy":0},{"dx":0,"dy":0},{"dx":0,"dy":0},{"dx":0,"dy":0},{"dx":0,"dy":0},{"dx":0,"dy":0},{"dx":0,"dy":0},{"dx":0,"dy":0},{"dx":0,"dy":0},{"dx":0,"dy":-5},{"dx":3,"dy":-8},{"dx":0,"dy":0},{"dx":1,"dy":-7},{"dx":2,"dy":-5},{"dx":1,"dy":-5},{"dx":1,"dy":-2},{"dx":2,"dy":-5},{"dx":0,"dy":0},{"dx":3,"dy":-5},{"dx":0,"dy":-1},{"dx":1,"dy":0},{"dx":2,"dy":-5},{"dx":1,"dy":-1},{"dx":1,"dy":-1},{"dx":2,"dy":-4},{"dx":0,"dy":-1},{"dx":1,"dy":-1},{"dx":3,"dy":-4},{"dx":3,"dy":-5},{"dx":0,"dy":-1},{"dx":4,"dy":-4},{"dx":4,"dy":-3},{"dx":3,"dy":-5},{"dx":4,"dy":-3},{"dx":0,"dy":-1},{"dx":4,"dy":-2},{"dx":8,"dy":-6},{"dx":3,"dy":-2},{"dx":3,"dy":-3},{"dx":4,"dy":-3},{"dx":3,"dy":-2},{"dx":4,"dy":-3},{"dx":8,"dy":-5},{"dx":4,"dy":-3},{"dx":3,"dy":-2},{"dx":4,"dy":-3},{"dx":4,"dy":-2},{"dx":5,"dy":-4},{"dx":4,"dy":-2},{"dx":5,"dy":-2},{"dx":5,"dy":-2},{"dx":7,"dy":-2},{"dx":1,"dy":-1},{"dx":6,"dy":-1},{"dx":5,"dy":-1},{"dx":1,"dy":-1},{"dx":4,"dy":-1},{"dx":5,"dy":-1},{"dx":0,"dy":0},{"dx":5,"dy":0},{"dx":1,"dy":0},{"dx":5,"dy":0},{"dx":1,"dy":0},{"dx":5,"dy":1},{"dx":0,"dy":0},{"dx":4,"dy":2},{"dx":1,"dy":1},{"dx":1,"dy":0},{"dx":3,"dy":3},{"dx":1,"dy":0},{"dx":1,"dy":1},{"dx":1,"dy":0},{"dx":2,"dy":3},{"dx":1,"dy":1},{"dx":3,"dy":4},{"dx":2,"dy":4},{"dx":3,"dy":5},{"dx":0,"dy":1},{"dx":3,"dy":4},{"dx":2,"dy":5},{"dx":0,"dy":0},{"dx":3,"dy":5},{"dx":1,"dy":4},{"dx":0,"dy":1},{"dx":3,"dy":4},{"dx":2,"dy":5},{"dx":2,"dy":8},{"dx":1,"dy":5},{"dx":3,"dy":6},{"dx":0,"dy":1},{"dx":2,"dy":5},{"dx":2,"dy":6},{"dx":2,"dy":7},{"dx":1,"dy":1},{"dx":2,"dy":5},{"dx":1,"dy":6},{"dx":3,"dy":6},{"dx":2,"dy":5},{"dx":2,"dy":3},{"dx":1,"dy":1},{"dx":7,"dy":9},{"dx":4,"dy":4},{"dx":3,"dy":3},{"dx":3,"dy":3},{"dx":3,"dy":2},{"dx":5,"dy":4},{"dx":7,"dy":6},{"dx":4,"dy":2},{"dx":1,"dy":1},{"dx":4,"dy":2},{"dx":3,"dy":3},{"dx":1,"dy":0},{"dx":4,"dy":2},{"dx":1,"dy":0},{"dx":1,"dy":0},{"dx":4,"dy":2},{"dx":1,"dy":0},{"dx":5,"dy":1},{"dx":1,"dy":0},{"dx":4,"dy":0},{"dx":5,"dy":0},{"dx":4,"dy":0},{"dx":0,"dy":0},{"dx":5,"dy":-1},{"dx":5,"dy":-1},{"dx":0,"dy":0},{"dx":4,"dy":-2},{"dx":5,"dy":-1},{"dx":5,"dy":-1},{"dx":4,"dy":-1},{"dx":6,"dy":-2},{"dx":5,"dy":-2},{"dx":6,"dy":-2},{"dx":4,"dy":-2},{"dx":1,"dy":-1},{"dx":4,"dy":-2},{"dx":6,"dy":-3},{"dx":6,"dy":-2},{"dx":5,"dy":-2},{"dx":5,"dy":-3},{"dx":4,"dy":-3},{"dx":3,"dy":-2},{"dx":7,"dy":-5},{"dx":4,"dy":-3},{"dx":2,"dy":-3},{"dx":5,"dy":-5},{"dx":3,"dy":-3},{"dx":3,"dy":-4},{"dx":5,"dy":-4},{"dx":6,"dy":-9},{"dx":3,"dy":-4},{"dx":4,"dy":-6},{"dx":2,"dy":-4},{"dx":2,"dy":-4},{"dx":3,"dy":-6},{"dx":2,"dy":-4},{"dx":2,"dy":-4},{"dx":4,"dy":-5},{"dx":3,"dy":-5},{"dx":2,"dy":-6},{"dx":1,"dy":-1},{"dx":3,"dy":-10},{"dx":0,"dy":-1},{"dx":2,"dy":-5},{"dx":2,"dy":-5},{"dx":2,"dy":-6},{"dx":2,"dy":-6},{"dx":0,"dy":0},{"dx":1,"dy":-6},{"dx":0,"dy":-6},{"dx":0,"dy":-7},{"dx":0,"dy":-1},{"dx":0,"dy":-5},{"dx":0,"dy":-6},{"dx":-1,"dy":-5},{"dx":-1,"dy":-5},{"dx":0,"dy":0},{"dx":-2,"dy":-7},{"dx":0,"dy":-1},{"dx":-2,"dy":-6},{"dx":-1,"dy":-5},{"dx":-2,"dy":-6},{"dx":0,"dy":-1},{"dx":-2,"dy":-4},{"dx":-1,"dy":-1},{"dx":-3,"dy":-5},{"dx":-3,"dy":-4},{"dx":0,"dy":-1},{"dx":-4,"dy":-3},{"dx":-4,"dy":-4},{"dx":-1,"dy":-1},{"dx":-2,"dy":-3},{"dx":-4,"dy":-4},{"dx":-1,"dy":0},{"dx":-4,"dy":-3},{"dx":-2,"dy":-2},{"dx":-5,"dy":-2},{"dx":-5,"dy":-3},{"dx":-4,"dy":-2},{"dx":-5,"dy":-2},{"dx":-4,"dy":-2},{"dx":-6,"dy":-2},{"dx":-5,"dy":-1},{"dx":-6,"dy":-1},{"dx":-5,"dy":-1},{"dx":-4,"dy":0},{"dx":-4,"dy":0},{"dx":-6,"dy":0},{"dx":-1,"dy":0},{"dx":-2,"dy":0},{"dx":-1,"dy":0},{"dx":-4,"dy":2},{"dx":-5,"dy":2},{"dx":-4,"dy":4},{"dx":-5,"dy":5},{"dx":-9,"dy":9},{"dx":-4,"dy":5},{"dx":-5,"dy":5},{"dx":-4,"dy":4},{"dx":-4,"dy":4},{"dx":-4,"dy":4},{"dx":-7,"dy":7},{"dx":-4,"dy":3},{"dx":-3,"dy":3},{"dx":-4,"dy":4},{"dx":-3,"dy":3},{"dx":-4,"dy":2},{"dx":-4,"dy":5},{"dx":-4,"dy":3},{"dx":-3,"dy":4},{"dx":-2,"dy":4},{"dx":-1,"dy":0},{"dx":-2,"dy":5},{"dx":-1,"dy":6},{"dx":-1,"dy":4},{"dx":-2,"dy":7},{"dx":-2,"dy":6},{"dx":0,"dy":1},{"dx":-1,"dy":7},{"dx":-3,"dy":10},{"dx":-1,"dy":6},{"dx":0,"dy":6},{"dx":0,"dy":4},{"dx":-1,"dy":8},{"dx":0,"dy":0},{"dx":0,"dy":7},{"dx":0,"dy":5},{"dx":0,"dy":5},{"dx":0,"dy":13},{"dx":0,"dy":6},{"dx":0,"dy":0},{"dx":3,"dy":11},{"dx":1,"dy":5},{"dx":1,"dy":6},{"dx":1,"dy":6},{"dx":1,"dy":5},{"dx":2,"dy":6},{"dx":2,"dy":5},{"dx":0,"dy":1},{"dx":2,"dy":4},{"dx":3,"dy":5},{"dx":4,"dy":4},{"dx":1,"dy":0},{"dx":2,"dy":3},{"dx":4,"dy":3},{"dx":5,"dy":3},{"dx":0,"dy":0},{"dx":8,"dy":4},{"dx":6,"dy":1},{"dx":4,"dy":2},{"dx":5,"dy":2},{"dx":1,"dy":0},{"dx":4,"dy":2},{"dx":11,"dy":2},{"dx":4,"dy":1},{"dx":6,"dy":0},{"dx":5,"dy":0},{"dx":4,"dy":1},{"dx":5,"dy":0},{"dx":9,"dy":-1},{"dx":6,"dy":-1},{"dx":5,"dy":-1},{"dx":6,"dy":-1},{"dx":6,"dy":-1},{"dx":5,"dy":-1},{"dx":8,"dy":-3},{"dx":5,"dy":0},{"dx":6,"dy":-1},{"dx":6,"dy":-1},{"dx":5,"dy":-2},{"dx":6,"dy":-1},{"dx":9,"dy":-3},{"dx":7,"dy":-2},{"dx":6,"dy":-1},{"dx":6,"dy":-2},{"dx":5,"dy":-1},{"dx":4,"dy":-2},{"dx":9,"dy":-3},{"dx":5,"dy":-2},{"dx":5,"dy":-1},{"dx":5,"dy":-2},{"dx":4,"dy":-2},{"dx":5,"dy":-3},{"dx":5,"dy":-4},{"dx":1,"dy":0},{"dx":3,"dy":-3},{"dx":4,"dy":-4},{"dx":3,"dy":-5},{"dx":2,"dy":-5},{"dx":2,"dy":-5},{"dx":3,"dy":-6},{"dx":2,"dy":-5},{"dx":3,"dy":-10},{"dx":2,"dy":-4},{"dx":3,"dy":-5},{"dx":3,"dy":-5},{"dx":3,"dy":-4},{"dx":4,"dy":-4},{"dx":11,"dy":-9},{"dx":4,"dy":-4},{"dx":3,"dy":-3},{"dx":4,"dy":-4},{"dx":0,"dy":-1},{"dx":4,"dy":-3},{"dx":4,"dy":-3},{"dx":3,"dy":-2},{"dx":0,"dy":0},{"dx":8,"dy":-4},{"dx":5,"dy":-1},{"dx":4,"dy":-1},{"dx":5,"dy":-1},{"dx":5,"dy":0},{"dx":6,"dy":-1},{"dx":12,"dy":-1},{"dx":6,"dy":0},{"dx":1,"dy":0},{"dx":5,"dy":0},{"dx":4,"dy":0},{"dx":0,"dy":0},{"dx":6,"dy":2},{"dx":4,"dy":2},{"dx":3,"dy":2},{"dx":4,"dy":5},{"dx":4,"dy":4},{"dx":3,"dy":4},{"dx":6,"dy":10},{"dx":4,"dy":6},{"dx":2,"dy":6},{"dx":1,"dy":6},{"dx":1,"dy":6},{"dx":0,"dy":7},{"dx":-1,"dy":13},{"dx":-2,"dy":6},{"dx":-2,"dy":8},{"dx":-3,"dy":6},{"dx":-3,"dy":9},{"dx":-4,"dy":8},{"dx":-5,"dy":11},{"dx":-4,"dy":8},{"dx":-4,"dy":7},{"dx":-4,"dy":6},{"dx":-7,"dy":12},{"dx":-3,"dy":4},{"dx":-4,"dy":5},{"dx":-4,"dy":5},{"dx":-4,"dy":4},{"dx":-4,"dy":3},{"dx":-7,"dy":7},{"dx":-4,"dy":3},{"dx":-5,"dy":3},{"dx":-6,"dy":4},{"dx":-3,"dy":2},{"dx":-5,"dy":3},{"dx":-4,"dy":2},{"dx":-5,"dy":1},{"dx":-5,"dy":1},{"dx":-7,"dy":1},{"dx":-3,"dy":0},{"dx":-5,"dy":0},{"dx":-9,"dy":0},{"dx":-4,"dy":0},{"dx":-5,"dy":-1},{"dx":-5,"dy":-2},{"dx":-5,"dy":-2},{"dx":-4,"dy":-2},{"dx":-7,"dy":-3},{"dx":-3,"dy":-2},{"dx":-4,"dy":-3},{"dx":-7,"dy":-4},{"dx":-5,"dy":-3},{"dx":-5,"dy":-2},{"dx":-6,"dy":-3},{"dx":-5,"dy":-4},{"dx":-6,"dy":-3},{"dx":-12,"dy":-5},{"dx":-5,"dy":-3},{"dx":-7,"dy":-4},{"dx":-6,"dy":-4},{"dx":-4,"dy":-3},{"dx":-4,"dy":-4}],"trial_type":"plugin-moving-dots-2","trial_index":20,"plugin_version":"0.0.1","time_elapsed":109703},{"task":"fixation","rt":1782,"stimulus":"<div style=\"font-size:60px;\">+</div>","response":" ","trial_type":"html-keyboard-response","trial_index":21,"plugin_version":"2.1.0","time_elapsed":111486},{"task":"movingdots","control_change":0,"mouse_data":[{"dx":0,"dy":0},{"dx":0,"dy":0},{"dx":0,"dy":0},{"dx":0,"dy":0},{"dx":0,"dy":0},{"dx":0,"dy":0},{"dx":0,"dy":0},{"dx":0,"dy":0},{"dx":0,"dy":0},{"dx":0,"dy":0},{"dx":0,"dy":0},{"dx":0,"dy":0},{"dx":0,"dy":0},{"dx":0,"dy":0},{"dx":0,"dy":0},{"dx":0,"dy":0},{"dx":0,"dy":0},{"dx":0,"dy":0},{"dx":0,"dy":0},{"dx":0,"dy":0},{"dx":0,"dy":0},{"dx":0,"dy":0},{"dx":0,"dy":0},{"dx":-9,"dy":-6},{"dx":-6,"dy":-3},{"dx":-4,"dy":-3},{"dx":-5,"dy":-3},{"dx":-5,"dy":-3},{"dx":-6,"dy":-2},{"dx":-11,"dy":-7},{"dx":-3,"dy":-2},{"dx":-1,"dy":-1},{"dx":-9,"dy":-5},{"dx":0,"dy":0},{"dx":-4,"dy":-2},{"dx":-6,"dy":-3},{"dx":0,"dy":0},{"dx":-4,"dy":-2},{"dx":-5,"dy":-2},{"dx":0,"dy":-1},{"dx":-1,"dy":0},{"dx":-3,"dy":-3},{"dx":-1,"dy":0},{"dx":-1,"dy":-1},{"dx":-5,"dy":-3},{"dx":-3,"dy":-2},{"dx":-4,"dy":-3},{"dx":-2,"dy":-3},{"dx":-4,"dy":-4},{"dx":-3,"dy":-3},{"dx":-5,"dy":-5},{"dx":-4,"dy":-5},{"dx":-4,"dy":-4},{"dx":-3,"dy":-4},{"dx":-3,"dy":-3},{"dx":-4,"dy":-5},{"dx":-4,"dy":-5},{"dx":-3,"dy":-4},{"dx":-3,"dy":-5},{"dx":-3,"dy":-6},{"dx":0,"dy":0},{"dx":-3,"dy":-5},{"dx":-2,"dy":-4},{"dx":-3,"dy":-5},{"dx":0,"dy":-1},{"dx":-2,"dy":-4},{"dx":-2,"dy":-4},{"dx":-3,"dy":-7},{"dx":-1,"dy":-6},{"dx":-2,"dy":-5},{"dx":-2,"dy":-5},{"dx":-1,"dy":-6},{"dx":-2,"dy":-5},{"dx":-1,"dy":-6},{"dx":-2,"dy":-5},{"dx":-3,"dy":-5},{"dx":-3,"dy":-6},{"dx":-3,"dy":-6},{"dx":-3,"dy":-3},{"dx":-4,"dy":-5},{"dx":-7,"dy":-6},{"dx":-3,"dy":-2},{"dx":-3,"dy":-4},{"dx":-5,"dy":-3},{"dx":0,"dy":0},{"dx":-4,"dy":-4},{"dx":-3,"dy":-3},{"dx":-1,"dy":-1},{"dx":-3,"dy":-4},{"dx":-1,"dy":-1},{"dx":-3,"dy":-4},{"dx":-1,"dy":-1},{"dx":-1,"dy":-1},{"dx":-2,"dy":-1},{"dx":0,"dy":-1},{"dx":-1,"dy":-2},{"dx":-1,"dy":-1},{"dx":-1,"dy":-1},{"dx":-1,"dy":-1},{"dx":-1,"dy":-1},{"dx":0,"dy":-2},{"dx":-2,"dy":-2},{"dx":-2,"dy":-5},{"dx":0,"dy":0},{"dx":0,"dy":-8},{"dx":0,"dy":0},{"dx":0,"dy":-4},{"dx":0,"dy":-6},{"dx":0,"dy":-1},{"dx":0,"dy":-4},{"dx":-1,"dy":-1},{"dx":0,"dy":-3},{"dx":0,"dy":-1},{"dx":0,"dy":-2},{"dx":0,"dy":-3},{"dx":1,"dy":-5},{"dx":1,"dy":-1},{"dx":2,"dy":-5},{"dx":0,"dy":-1},{"dx":1,"dy":-1},{"dx":2,"dy":-5},{"dx":1,"dy":-1},{"dx":0,"dy":-1},{"dx":1,"dy":-2},{"dx":1,"dy":-1},{"dx":1,"dy":-1},{"dx":1,"dy":-1},{"dx":1,"dy":-1},{"dx":1,"dy":-2},{"dx":4,"dy":-3},{"dx":0,"dy":0},{"dx":5,"dy":-3},{"dx":1,"dy":-1},{"dx":3,"dy":-2},{"dx":3,"dy":-2},{"dx":5,"dy":-3},{"dx":1,"dy":0},{"dx":4,"dy":-3},{"dx":6,"dy":-3},{"dx":4,"dy":-3},{"dx":4,"dy":-2},{"dx":13,"dy":-5},{"dx":7,"dy":-3},{"dx":5,"dy":-2},{"dx":7,"dy":-2},{"dx":6,"dy":-2},{"dx":7,"dy":-2},{"dx":11,"dy":-2},{"dx":5,"dy":-1},{"dx":4,"dy":-1},{"dx":6,"dy":-1},{"dx":7,"dy":-1},{"dx":8,"dy":0},{"dx":11,"dy":-2},{"dx":5,"dy":0},{"dx":8,"dy":-1},{"dx":8,"dy":0},{"dx":7,"dy":0},{"dx":6,"dy":0},{"dx":10,"dy":0},{"dx":6,"dy":0},{"dx":7,"dy":0},{"dx":6,"dy":0},{"dx":5,"dy":0},{"dx":5,"dy":0},{"dx":10,"dy":1},{"dx":6,"dy":1},{"dx":8,"dy":2},{"dx":6,"dy":1},{"dx":4,"dy":0},{"dx":5,"dy":1},{"dx":6,"dy":2},{"dx":6,"dy":2},{"dx":5,"dy":1},{"dx":5,"dy":1},{"dx":1,"dy":0},{"dx":5,"dy":1},{"dx":5,"dy":2},{"dx":5,"dy":2},{"dx":5,"dy":2},{"dx":6,"dy":3},{"dx":4,"dy":2},{"dx":6,"dy":2},{"dx":0,"dy":0},{"dx":5,"dy":2},{"dx":4,"dy":2},{"dx":6,"dy":2},{"dx":5,"dy":2},{"dx":5,"dy":2},{"dx":4,"dy":1},{"dx":4,"dy":1},{"dx":5,"dy":3},{"dx":4,"dy":3},{"dx":6,"dy":3},{"dx":4,"dy":3},{"dx":4,"dy":2},{"dx":6,"dy":3},{"dx":3,"dy":2},{"dx":4,"dy":2},{"dx":7,"dy":6},{"dx":5,"dy":3},{"dx":4,"dy":3},{"dx":4,"dy":3},{"dx":5,"dy":2},{"dx":5,"dy":2},{"dx":8,"dy":3},{"dx":5,"dy":2},{"dx":4,"dy":3},{"dx":4,"dy":2},{"dx":5,"dy":2},{"dx":5,"dy":2},{"dx":7,"dy":4},{"dx":3,"dy":3},{"dx":4,"dy":3},{"dx":4,"dy":3},{"dx":4,"dy":4},{"dx":0,"dy":0},{"dx":3,"dy":4},{"dx":4,"dy":4},{"dx":3,"dy":4},{"dx":4,"dy":4},{"dx":2,"dy":5},{"dx":3,"dy":4},{"dx":2,"dy":6},{"dx":2,"dy":4},{"dx":3,"dy":7},{"dx":3,"dy":6},{"dx":3,"dy":5},{"dx":3,"dy":4},{"dx":2,"dy":6},{"dx":3,"dy":4},{"dx":2,"dy":6},{"dx":8,"dy":10},{"dx":5,"dy":5},{"dx":4,"dy":4},{"dx":4,"dy":4},{"dx":6,"dy":3},{"dx":5,"dy":3},{"dx":11,"dy":5},{"dx":8,"dy":3},{"dx":6,"dy":2},{"dx":6,"dy":1},{"dx":8,"dy":2},{"dx":8,"dy":0},{"dx":7,"dy":0},{"dx":15,"dy":-2},{"dx":8,"dy":-2},{"dx":7,"dy":-1},{"dx":6,"dy":-2},{"dx":3,"dy":-1},{"dx":5,"dy":-2},{"dx":5,"dy":-4},{"dx":0,"dy":0},{"dx":4,"dy":-2},{"dx":4,"dy":-4},{"dx":1,"dy":-1},{"dx":3,"dy":-4},{"dx":3,"dy":-5},{"dx":4,"dy":-4},{"dx":6,"dy":-8},{"dx":2,"dy":-5},{"dx":1,"dy":-1},{"dx":3,"dy":-5},{"dx":2,"dy":-5},{"dx":2,"dy":-5},{"dx":1,"dy":-11},{"dx":1,"dy":-7},{"dx":0,"dy":-5},{"dx":1,"dy":-5},{"dx":0,"dy":-5},{"dx":1,"dy":-5},{"dx":1,"dy":-12},{"dx":0,"dy":-7},{"dx":0,"dy":-5},{"dx":0,"dy":-6},{"dx":0,"dy":-6},{"dx":0,"dy":-5},{"dx":0,"dy":-5},{"dx":0,"dy":-10},{"dx":0,"dy":-6},{"dx":-1,"dy":-5},{"dx":-1,"dy":-6},{"dx":-2,"dy":-5},{"dx":-1,"dy":-1},{"dx":-2,"dy":-5},{"dx":-3,"dy":-5},{"dx":-2,"dy":-4},{"dx":-5,"dy":-4},{"dx":-4,"dy":-4},{"dx":-1,"dy":-1},{"dx":-5,"dy":-3},{"dx":-4,"dy":-3},{"dx":-4,"dy":-2},{"dx":-6,"dy":-2},{"dx":-5,"dy":-1},{"dx":-6,"dy":-1},{"dx":-9,"dy":-2},{"dx":-5,"dy":-1},{"dx":-6,"dy":0},{"dx":-7,"dy":0},{"dx":-7,"dy":0},{"dx":-6,"dy":1},{"dx":-11,"dy":1},{"dx":-5,"dy":1},{"dx":-6,"dy":1},{"dx":-5,"dy":1},{"dx":-4,"dy":0},{"dx":-5,"dy":2},{"dx":-4,"dy":1},{"dx":-1,"dy":1},{"dx":-4,"dy":2},{"dx":-1,"dy":0},{"dx":-4,"dy":3},{"dx":-3,"dy":2},{"dx":-1,"dy":1},{"dx":-4,"dy":3},{"dx":-1,"dy":1},{"dx":-3,"dy":3},{"dx":-2,"dy":4},{"dx":-3,"dy":5},{"dx":-3,"dy":5},{"dx":-2,"dy":6},{"dx":-1,"dy":4},{"dx":-2,"dy":5},{"dx":-2,"dy":4},{"dx":-2,"dy":5},{"dx":-6,"dy":10},{"dx":-2,"dy":5},{"dx":-2,"dy":6},{"dx":-2,"dy":5},{"dx":-2,"dy":6},{"dx":-2,"dy":6},{"dx":-2,"dy":10},{"dx":-2,"dy":7},{"dx":0,"dy":5},{"dx":-1,"dy":6},{"dx":0,"dy":4},{"dx":0,"dy":6},{"dx":0,"dy":11},{"dx":0,"dy":5},{"dx":1,"dy":6},{"dx":0,"dy":6},{"dx":0,"dy":5},{"dx":1,"dy":7},{"dx":0,"dy":7},{"dx":0,"dy":1},{"dx":0,"dy":6},{"dx":1,"dy":12},{"dx":0,"dy":5},{"dx":1,"dy":5},{"dx":0,"dy":5},{"dx":2,"dy":6},{"dx":1,"dy":7},{"dx":2,"dy":7},{"dx":1,"dy":4},{"dx":2,"dy":5},{"dx":4,"dy":10},{"dx":2,"dy":5},{"dx":2,"dy":4},{"dx":2,"dy":3},{"dx":3,"dy":4},{"dx":5,"dy":4},{"dx":7,"dy":8},{"dx":4,"dy":3},{"dx":3,"dy":3},{"dx":4,"dy":3},{"dx":4,"dy":3},{"dx":4,"dy":2},{"dx":9,"dy":6},{"dx":0,"dy":0},{"dx":4,"dy":2},{"dx":5,"dy":2},{"dx":1,"dy":0},{"dx":4,"dy":0},{"dx":4,"dy":0},{"dx":4,"dy":0},{"dx":1,"dy":0},{"dx":9,"dy":-1},{"dx":5,"dy":-1},{"dx":1,"dy":0},{"dx":5,"dy":-2},{"dx":9,"dy":-4},{"dx":5,"dy":-2},{"dx":6,"dy":-2},{"dx":0,"dy":0},{"dx":3,"dy":-2},{"dx":1,"dy":0},{"dx":6,"dy":-1},{"dx":1,"dy":-1},{"dx":4,"dy":0},{"dx":1,"dy":0},{"dx":0,"dy":0},{"dx":1,"dy":0},{"dx":1,"dy":0},{"dx":1,"dy":0},{"dx":1,"dy":0},{"dx":0,"dy":0},{"dx":1,"dy":0},{"dx":0,"dy":0},{"dx":0,"dy":0},{"dx":0,"dy":1},{"dx":0,"dy":0},{"dx":3,"dy":6},{"dx":0,"dy":1},{"dx":2,"dy":5},{"dx":2,"dy":6},{"dx":1,"dy":1},{"dx":2,"dy":5},{"dx":1,"dy":5},{"dx":2,"dy":7},{"dx":1,"dy":5},{"dx":2,"dy":6},{"dx":0,"dy":6},{"dx":2,"dy":6},{"dx":1,"dy":7},{"dx":0,"dy":0},{"dx":1,"dy":5},{"dx":2,"dy":7},{"dx":1,"dy":4},{"dx":1,"dy":7},{"dx":1,"dy":7},{"dx":0,"dy":0},{"dx":0,"dy":5},{"dx":0,"dy":6},{"dx":0,"dy":0},{"dx":0,"dy":1},{"dx":0,"dy":6},{"dx":-1,"dy":6},{"dx":-1,"dy":1},{"dx":-2,"dy":4},{"dx":-2,"dy":4},{"dx":-4,"dy":5},{"dx":-3,"dy":4},{"dx":-4,"dy":3},{"dx":-5,"dy":3},{"dx":-4,"dy":3},{"dx":-5,"dy":4},{"dx":-1,"dy":0},{"dx":-4,"dy":3},{"dx":-3,"dy":1},{"dx":-2,"dy":1},{"dx":-5,"dy":2},{"dx":-5,"dy":1},{"dx":-4,"dy":0},{"dx":-6,"dy":0},{"dx":-5,"dy":0},{"dx":0,"dy":0},{"dx":-6,"dy":1},{"dx":-5,"dy":0},{"dx":-5,"dy":0},{"dx":-10,"dy":0},{"dx":-6,"dy":0},{"dx":-5,"dy":0}],"trial_type":"plugin-moving-dots-2","trial_index":22,"plugin_version":"0.0.1","time_elapsed":119002},{"task":"fixation","rt":1618,"stimulus":"<div style=\"font-size:60px;\">+</div>","response":" ","trial_type":"html-keyboard-response","trial_index":23,"plugin_version":"2.1.0","time_elapsed":120622},{"task":"movingdots","control_change":0,"mouse_data":[{"dx":0,"dy":0},{"dx":0,"dy":0},{"dx":0,"dy":0},{"dx":0,"dy":0},{"dx":0,"dy":0},{"dx":0,"dy":0},{"dx":0,"dy":0},{"dx":0,"dy":0},{"dx":0,"dy":0},{"dx":0,"dy":0},{"dx":0,"dy":0},{"dx":0,"dy":0},{"dx":0,"dy":0},{"dx":0,"dy":0},{"dx":0,"dy":0},{"dx":0,"dy":0},{"dx":0,"dy":0},{"dx":0,"dy":0},{"dx":0,"dy":0},{"dx":0,"dy":0},{"dx":0,"dy":0},{"dx":0,"dy":0},{"dx":0,"dy":0},{"dx":0,"dy":0},{"dx":0,"dy":0},{"dx":0,"dy":0},{"dx":0,"dy":0},{"dx":0,"dy":0},{"dx":0,"dy":0},{"dx":0,"dy":0},{"dx":0,"dy":0},{"dx":0,"dy":0},{"dx":0,"dy":0},{"dx":0,"dy":0},{"dx":0,"dy":0},{"dx":0,"dy":0},{"dx":0,"dy":0},{"dx":0,"dy":0},{"dx":0,"dy":0},{"dx":0,"dy":0},{"dx":0,"dy":0},{"dx":0,"dy":0},{"dx":0,"dy":0},{"dx":0,"dy":0},{"dx":0,"dy":0},{"dx":0,"dy":0},{"dx":0,"dy":0},{"dx":0,"dy":0},{"dx":0,"dy":0},{"dx":0,"dy":0},{"dx":0,"dy":0},{"dx":0,"dy":0},{"dx":0,"dy":0},{"dx":0,"dy":0},{"dx":0,"dy":0},{"dx":0,"dy":0},{"dx":0,"dy":0},{"dx":0,"dy":0},{"dx":0,"dy":0},{"dx":0,"dy":0},{"dx":0,"dy":0},{"dx":0,"dy":0},{"dx":0,"dy":0},{"dx":0,"dy":0},{"dx":0,"dy":0},{"dx":0,"dy":0},{"dx":0,"dy":0},{"dx":0,"dy":0},{"dx":0,"dy":0},{"dx":0,"dy":0},{"dx":0,"dy":0},{"dx":0,"dy":0},{"dx":0,"dy":0},{"dx":0,"dy":0},{"dx":0,"dy":0},{"dx":0,"dy":0},{"dx":0,"dy":0},{"dx":0,"dy":0},{"dx":0,"dy":0},{"dx":-3,"dy":0},{"dx":-6,"dy":3},{"dx":-7,"dy":2},{"dx":-5,"dy":1},{"dx":-6,"dy":1},{"dx":-12,"dy":2},{"dx":-6,"dy":1},{"dx":-5,"dy":1},{"dx":-6,"dy":1},{"dx":-6,"dy":1},{"dx":-6,"dy":1},{"dx":-10,"dy":1},{"dx":-3,"dy":0},{"dx":-5,"dy":0},{"dx":-6,"dy":0},{"dx":0,"dy":0},{"dx":-5,"dy":0},{"dx":-5,"dy":0},{"dx":-9,"dy":0},{"dx":-5,"dy":0},{"dx":-4,"dy":0},{"dx":-5,"dy":0},{"dx":-1,"dy":-1},{"dx":-4,"dy":0},{"dx":-5,"dy":0},{"dx":-4,"dy":0},{"dx":-4,"dy":0},{"dx":-1,"dy":0},{"dx":-5,"dy":0},{"dx":-2,"dy":-1},{"dx":-1,"dy":0},{"dx":-2,"dy":0},{"dx":-1,"dy":-1},{"dx":-2,"dy":0},{"dx":-1,"dy":-1},{"dx":-1,"dy":-1},{"dx":-1,"dy":-1},{"dx":0,"dy":-1},{"dx":-1,"dy":-2},{"dx":-1,"dy":-1},{"dx":-1,"dy":-1},{"dx":-1,"dy":-2},{"dx":-2,"dy":-5},{"dx":0,"dy":-1},{"dx":-3,"dy":-4},{"dx":-2,"dy":-1},{"dx":-2,"dy":-4},{"dx":-4,"dy":-5},{"dx":-1,"dy":0},{"dx":-3,"dy":-3},{"dx":-4,"dy":-4},{"dx":-4,"dy":-3},{"dx":-1,"dy":0},{"dx":-3,"dy":-3},{"dx":-4,"dy":-3},{"dx":-5,"dy":-3},{"dx":-5,"dy":-1},{"dx":-5,"dy":-1},{"dx":-5,"dy":-1},{"dx":-5,"dy":-2},{"dx":-10,"dy":-1},{"dx":-4,"dy":0},{"dx":-3,"dy":0},{"dx":-6,"dy":-1},{"dx":-4,"dy":0},{"dx":-4,"dy":0},{"dx":-5,"dy":0},{"dx":-5,"dy":0},{"dx":-1,"dy":0},{"dx":-5,"dy":0},{"dx":-6,"dy":0},{"dx":0,"dy":0},{"dx":-5,"dy":1},{"dx":-1,"dy":0},{"dx":-4,"dy":1},{"dx":-6,"dy":2},{"dx":0,"dy":0},{"dx":-2,"dy":0},{"dx":-3,"dy":1},{"dx":-5,"dy":2},{"dx":-5,"dy":2},{"dx":-17,"dy":6},{"dx":-9,"dy":4},{"dx":-6,"dy":4},{"dx":-6,"dy":3},{"dx":-6,"dy":3},{"dx":-7,"dy":4},{"dx":-12,"dy":8},{"dx":-5,"dy":3},{"dx":-4,"dy":3},{"dx":-4,"dy":4},{"dx":-1,"dy":0},{"dx":-4,"dy":4},{"dx":-5,"dy":6},{"dx":-2,"dy":4},{"dx":-5,"dy":6},{"dx":-3,"dy":3},{"dx":-3,"dy":4},{"dx":-4,"dy":5},{"dx":-3,"dy":4},{"dx":-3,"dy":4},{"dx":-3,"dy":5},{"dx":-2,"dy":6},{"dx":-2,"dy":6},{"dx":0,"dy":0},{"dx":-2,"dy":5},{"dx":-2,"dy":4},{"dx":0,"dy":1},{"dx":-1,"dy":6},{"dx":-1,"dy":5},{"dx":0,"dy":1},{"dx":0,"dy":5},{"dx":0,"dy":6},{"dx":0,"dy":0},{"dx":0,"dy":4},{"dx":0,"dy":6},{"dx":1,"dy":5},{"dx":0,"dy":1},{"dx":2,"dy":4},{"dx":1,"dy":5},{"dx":2,"dy":8},{"dx":2,"dy":5},{"dx":2,"dy":6},{"dx":3,"dy":9},{"dx":0,"dy":1},{"dx":3,"dy":5},{"dx":3,"dy":7},{"dx":5,"dy":8},{"dx":2,"dy":5},{"dx":3,"dy":3},{"dx":3,"dy":6},{"dx":3,"dy":4},{"dx":3,"dy":4},{"dx":5,"dy":7},{"dx":2,"dy":4},{"dx":4,"dy":5},{"dx":3,"dy":3},{"dx":4,"dy":3},{"dx":4,"dy":5},{"dx":4,"dy":2},{"dx":0,"dy":1},{"dx":3,"dy":2},{"dx":3,"dy":4},{"dx":1,"dy":0},{"dx":4,"dy":4},{"dx":3,"dy":3},{"dx":4,"dy":2},{"dx":0,"dy":0},{"dx":3,"dy":2},{"dx":4,"dy":2},{"dx":1,"dy":1},{"dx":4,"dy":1},{"dx":5,"dy":3},{"dx":1,"dy":0},{"dx":9,"dy":2},{"dx":4,"dy":0},{"dx":6,"dy":1},{"dx":4,"dy":0},{"dx":5,"dy":1},{"dx":4,"dy":0},{"dx":6,"dy":0},{"dx":6,"dy":0},{"dx":4,"dy":0},{"dx":5,"dy":0},{"dx":5,"dy":-1},{"dx":5,"dy":-1},{"dx":5,"dy":-1},{"dx":6,"dy":-1},{"dx":0,"dy":0},{"dx":10,"dy":-3},{"dx":4,"dy":0},{"dx":5,"dy":-2},{"dx":5,"dy":-1},{"dx":5,"dy":-1},{"dx":4,"dy":0},{"dx":9,"dy":-3},{"dx":7,"dy":-1},{"dx":5,"dy":-1},{"dx":8,"dy":-2},{"dx":5,"dy":-2},{"dx":3,"dy":-1},{"dx":8,"dy":-3},{"dx":5,"dy":-2},{"dx":4,"dy":-2},{"dx":6,"dy":-3},{"dx":0,"dy":-1},{"dx":4,"dy":-2},{"dx":4,"dy":-3},{"dx":1,"dy":-1},{"dx":1,"dy":0},{"dx":0,"dy":-2},{"dx":0,"dy":0},{"dx":0,"dy":-2},{"dx":-2,"dy":-10},{"dx":-3,"dy":-4},{"dx":-3,"dy":-6},{"dx":-3,"dy":-5},{"dx":-4,"dy":-6},{"dx":-3,"dy":-4},{"dx":-9,"dy":-11},{"dx":-3,"dy":-6},{"dx":-6,"dy":-7},{"dx":-5,"dy":-7},{"dx":-6,"dy":-8},{"dx":-4,"dy":-5},{"dx":-3,"dy":-6},{"dx":-8,"dy":-12},{"dx":-4,"dy":-6},{"dx":-5,"dy":-8},{"dx":-4,"dy":-5},{"dx":-4,"dy":-5},{"dx":-4,"dy":-5},{"dx":-6,"dy":-9},{"dx":-3,"dy":-4},{"dx":-4,"dy":-6},{"dx":-4,"dy":-5},{"dx":-5,"dy":-4},{"dx":-4,"dy":-4},{"dx":-7,"dy":-8},{"dx":-3,"dy":-4},{"dx":-4,"dy":-3},{"dx":-5,"dy":-4},{"dx":-4,"dy":-4},{"dx":-6,"dy":-5},{"dx":-8,"dy":-6},{"dx":-6,"dy":-4},{"dx":-3,"dy":-3},{"dx":-6,"dy":-2},{"dx":-6,"dy":-2},{"dx":-5,"dy":-2},{"dx":-9,"dy":-3},{"dx":-5,"dy":-3},{"dx":-1,"dy":0},{"dx":-5,"dy":-3},{"dx":-5,"dy":-2},{"dx":-6,"dy":-3},{"dx":-5,"dy":-1},{"dx":-4,"dy":-1},{"dx":-4,"dy":-1},{"dx":-6,"dy":-1},{"dx":-5,"dy":-1},{"dx":-1,"dy":0},{"dx":-4,"dy":-2},{"dx":0,"dy":0},{"dx":-1,"dy":0},{"dx":-2,"dy":-1},{"dx":-1,"dy":0},{"dx":-1,"dy":0},{"dx":-2,"dy":0},{"dx":-5,"dy":0},{"dx":-1,"dy":0},{"dx":-5,"dy":2},{"dx":-4,"dy":0},{"dx":-1,"dy":1},{"dx":-10,"dy":3},{"dx":-1,"dy":1},{"dx":-4,"dy":2},{"dx":-5,"dy":2},{"dx":-10,"dy":3},{"dx":-1,"dy":0},{"dx":-5,"dy":2},{"dx":-8,"dy":4},{"dx":-5,"dy":1},{"dx":-6,"dy":2},{"dx":-5,"dy":1},{"dx":-6,"dy":1},{"dx":-10,"dy":2},{"dx":-5,"dy":1},{"dx":-5,"dy":1},{"dx":-5,"dy":2},{"dx":-5,"dy":2},{"dx":-4,"dy":1},{"dx":-4,"dy":2},{"dx":-8,"dy":3},{"dx":-5,"dy":2},{"dx":-6,"dy":3},{"dx":-1,"dy":1},{"dx":-4,"dy":1},{"dx":-4,"dy":4},{"dx":-1,"dy":0},{"dx":0,"dy":0},{"dx":-1,"dy":1},{"dx":0,"dy":0},{"dx":-1,"dy":0},{"dx":0,"dy":1},{"dx":-3,"dy":4},{"dx":-1,"dy":1},{"dx":-2,"dy":6},{"dx":-1,"dy":0},{"dx":-2,"dy":5},{"dx":-2,"dy":7},{"dx":-2,"dy":5},{"dx":0,"dy":1},{"dx":-2,"dy":6},{"dx":-3,"dy":9},{"dx":0,"dy":1},{"dx":-2,"dy":7},{"dx":-3,"dy":9},{"dx":0,"dy":1},{"dx":-2,"dy":7},{"dx":-1,"dy":5},{"dx":0,"dy":2},{"dx":-1,"dy":5},{"dx":-1,"dy":5},{"dx":-1,"dy":5},{"dx":0,"dy":1},{"dx":-2,"dy":5},{"dx":0,"dy":6},{"dx":-1,"dy":1},{"dx":0,"dy":5},{"dx":0,"dy":6},{"dx":0,"dy":0},{"dx":0,"dy":6},{"dx":0,"dy":1},{"dx":2,"dy":4},{"dx":2,"dy":5},{"dx":3,"dy":4},{"dx":1,"dy":1},{"dx":3,"dy":5},{"dx":2,"dy":3},{"dx":4,"dy":4},{"dx":4,"dy":4},{"dx":4,"dy":3},{"dx":0,"dy":1},{"dx":5,"dy":3},{"dx":3,"dy":2},{"dx":4,"dy":3},{"dx":3,"dy":2},{"dx":1,"dy":0},{"dx":5,"dy":4},{"dx":7,"dy":3},{"dx":5,"dy":1},{"dx":5,"dy":2},{"dx":5,"dy":1},{"dx":4,"dy":1},{"dx":5,"dy":2},{"dx":10,"dy":1},{"dx":6,"dy":1},{"dx":6,"dy":1},{"dx":6,"dy":0},{"dx":6,"dy":0},{"dx":5,"dy":1},{"dx":12,"dy":0},{"dx":4,"dy":0},{"dx":5,"dy":0},{"dx":5,"dy":0},{"dx":5,"dy":0},{"dx":5,"dy":0},{"dx":8,"dy":0},{"dx":5,"dy":0},{"dx":4,"dy":0},{"dx":4,"dy":0},{"dx":5,"dy":0},{"dx":5,"dy":-1},{"dx":11,"dy":-2},{"dx":4,"dy":0},{"dx":5,"dy":-1},{"dx":4,"dy":0},{"dx":4,"dy":-1},{"dx":6,"dy":-1},{"dx":8,"dy":-2},{"dx":4,"dy":-1},{"dx":5,"dy":0},{"dx":6,"dy":-1},{"dx":4,"dy":0},{"dx":5,"dy":-1},{"dx":14,"dy":-3},{"dx":6,"dy":0},{"dx":6,"dy":-1},{"dx":5,"dy":-1},{"dx":6,"dy":0},{"dx":5,"dy":0},{"dx":13,"dy":-1},{"dx":5,"dy":0}],"trial_type":"plugin-moving-dots-2","trial_index":24,"plugin_version":"0.0.1","time_elapsed":128136},{"task":"fixation","rt":2741,"stimulus":"<div style=\"font-size:60px;\">+</div>","response":" ","trial_type":"html-keyboard-response","trial_index":25,"plugin_version":"2.1.0","time_elapsed":130877},{"task":"movingdots","control_change":0,"mouse_data":[{"dx":0,"dy":0},{"dx":0,"dy":0},{"dx":0,"dy":0},{"dx":0,"dy":0},{"dx":0,"dy":0},{"dx":0,"dy":0},{"dx":0,"dy":0},{"dx":0,"dy":0},{"dx":0,"dy":0},{"dx":0,"dy":0},{"dx":0,"dy":0},{"dx":0,"dy":0},{"dx":0,"dy":0},{"dx":0,"dy":0},{"dx":0,"dy":0},{"dx":0,"dy":0},{"dx":0,"dy":0},{"dx":0,"dy":0},{"dx":0,"dy":0},{"dx":0,"dy":0},{"dx":0,"dy":0},{"dx":0,"dy":0},{"dx":0,"dy":0},{"dx":0,"dy":-4},{"dx":0,"dy":0},{"dx":0,"dy":-2},{"dx":0,"dy":0},{"dx":0,"dy":0},{"dx":0,"dy":-1},{"dx":0,"dy":-2},{"dx":-3,"dy":-4},{"dx":-1,"dy":-1},{"dx":-3,"dy":-3},{"dx":0,"dy":-2},{"dx":-1,"dy":-6},{"dx":0,"dy":-6},{"dx":0,"dy":-6},{"dx":5,"dy":-16},{"dx":2,"dy":-6},{"dx":2,"dy":-6},{"dx":3,"dy":-5},{"dx":0,"dy":0},{"dx":3,"dy":-4},{"dx":2,"dy":-4},{"dx":1,"dy":-1},{"dx":0,"dy":0},{"dx":1,"dy":-2},{"dx":0,"dy":0},{"dx":4,"dy":-2},{"dx":8,"dy":-6},{"dx":5,"dy":-2},{"dx":5,"dy":-3},{"dx":4,"dy":-2},{"dx":5,"dy":-2},{"dx":0,"dy":-1},{"dx":10,"dy":-3},{"dx":6,"dy":-1},{"dx":10,"dy":-2},{"dx":11,"dy":-1},{"dx":6,"dy":-1},{"dx":7,"dy":0},{"dx":15,"dy":0},{"dx":7,"dy":0},{"dx":6,"dy":0},{"dx":5,"dy":0},{"dx":4,"dy":1},{"dx":5,"dy":0},{"dx":1,"dy":0},{"dx":5,"dy":0},{"dx":0,"dy":0},{"dx":4,"dy":0},{"dx":4,"dy":0},{"dx":5,"dy":-2},{"dx":5,"dy":-2},{"dx":5,"dy":-2},{"dx":4,"dy":-1},{"dx":7,"dy":-2},{"dx":4,"dy":0},{"dx":5,"dy":-1},{"dx":6,"dy":0},{"dx":4,"dy":-1},{"dx":5,"dy":0},{"dx":7,"dy":0},{"dx":5,"dy":0},{"dx":5,"dy":0},{"dx":3,"dy":0},{"dx":6,"dy":0},{"dx":0,"dy":0},{"dx":10,"dy":0},{"dx":4,"dy":0},{"dx":4,"dy":0},{"dx":6,"dy":2},{"dx":6,"dy":4},{"dx":5,"dy":4},{"dx":10,"dy":6},{"dx":6,"dy":3},{"dx":6,"dy":3},{"dx":6,"dy":3},{"dx":5,"dy":2},{"dx":5,"dy":3},{"dx":9,"dy":4},{"dx":7,"dy":2},{"dx":6,"dy":1},{"dx":7,"dy":0},{"dx":7,"dy":0},{"dx":8,"dy":-2},{"dx":7,"dy":-1},{"dx":11,"dy":-2},{"dx":4,"dy":-2},{"dx":5,"dy":-2},{"dx":5,"dy":-2},{"dx":5,"dy":-2},{"dx":6,"dy":-2},{"dx":7,"dy":-2},{"dx":1,"dy":-1},{"dx":3,"dy":-1},{"dx":6,"dy":-2},{"dx":0,"dy":0},{"dx":4,"dy":-2},{"dx":6,"dy":-2},{"dx":5,"dy":-1},{"dx":4,"dy":-2},{"dx":6,"dy":-2},{"dx":0,"dy":-1},{"dx":5,"dy":-2},{"dx":0,"dy":0},{"dx":1,"dy":-1},{"dx":1,"dy":-1},{"dx":2,"dy":-1},{"dx":1,"dy":-1},{"dx":1,"dy":-1},{"dx":0,"dy":-1},{"dx":1,"dy":-1},{"dx":1,"dy":-1},{"dx":1,"dy":-3},{"dx":1,"dy":-5},{"dx":0,"dy":-1},{"dx":-1,"dy":-9},{"dx":-1,"dy":-5},{"dx":0,"dy":-1},{"dx":-3,"dy":-11},{"dx":-2,"dy":-5},{"dx":-2,"dy":-6},{"dx":-1,"dy":-4},{"dx":-3,"dy":-5},{"dx":-3,"dy":-5},{"dx":-3,"dy":-5},{"dx":-2,"dy":-5},{"dx":-3,"dy":-5},{"dx":-3,"dy":-5},{"dx":-3,"dy":-5},{"dx":-1,"dy":0},{"dx":-3,"dy":-5},{"dx":-4,"dy":-6},{"dx":-3,"dy":-4},{"dx":-4,"dy":-4},{"dx":-4,"dy":-4},{"dx":-3,"dy":-3},{"dx":-5,"dy":-5},{"dx":-3,"dy":-3},{"dx":-4,"dy":-2},{"dx":-4,"dy":-3},{"dx":-3,"dy":-3},{"dx":-5,"dy":-3},{"dx":-7,"dy":-2},{"dx":-1,"dy":0},{"dx":-5,"dy":-2},{"dx":-10,"dy":0},{"dx":-5,"dy":0},{"dx":-5,"dy":0},{"dx":-4,"dy":1},{"dx":-5,"dy":0},{"dx":-4,"dy":1},{"dx":-7,"dy":1},{"dx":-1,"dy":0},{"dx":-5,"dy":2},{"dx":-8,"dy":3},{"dx":-1,"dy":0},{"dx":-6,"dy":2},{"dx":-5,"dy":2},{"dx":-5,"dy":2},{"dx":-4,"dy":2},{"dx":-5,"dy":4},{"dx":-3,"dy":3},{"dx":-1,"dy":0},{"dx":-3,"dy":3},{"dx":-1,"dy":1},{"dx":-2,"dy":3},{"dx":-3,"dy":6},{"dx":0,"dy":1},{"dx":-2,"dy":5},{"dx":-2,"dy":5},{"dx":0,"dy":1},{"dx":-1,"dy":7},{"dx":0,"dy":0},{"dx":0,"dy":7},{"dx":1,"dy":7},{"dx":0,"dy":5},{"dx":1,"dy":6},{"dx":1,"dy":5},{"dx":1,"dy":5},{"dx":1,"dy":7},{"dx":1,"dy":1},{"dx":1,"dy":5},{"dx":0,"dy":1},{"dx":0,"dy":1},{"dx":1,"dy":1},{"dx":1,"dy":1},{"dx":0,"dy":1},{"dx":1,"dy":1},{"dx":3,"dy":4},{"dx":3,"dy":5},{"dx":3,"dy":4},{"dx":6,"dy":8},{"dx":2,"dy":4},{"dx":4,"dy":3},{"dx":3,"dy":4},{"dx":5,"dy":4},{"dx":5,"dy":3},{"dx":11,"dy":8},{"dx":6,"dy":4},{"dx":5,"dy":3},{"dx":4,"dy":3},{"dx":4,"dy":2},{"dx":4,"dy":1},{"dx":10,"dy":3},{"dx":4,"dy":1},{"dx":1,"dy":0},{"dx":5,"dy":1},{"dx":5,"dy":1},{"dx":5,"dy":0},{"dx":5,"dy":1},{"dx":5,"dy":0},{"dx":0,"dy":0},{"dx":4,"dy":0},{"dx":1,"dy":0},{"dx":0,"dy":0},{"dx":1,"dy":0},{"dx":1,"dy":0},{"dx":4,"dy":0},{"dx":1,"dy":0},{"dx":5,"dy":0},{"dx":1,"dy":0},{"dx":5,"dy":0},{"dx":0,"dy":0},{"dx":5,"dy":1},{"dx":5,"dy":3},{"dx":5,"dy":3},{"dx":3,"dy":3},{"dx":4,"dy":4},{"dx":4,"dy":5},{"dx":2,"dy":5},{"dx":3,"dy":9},{"dx":1,"dy":5},{"dx":1,"dy":6},{"dx":1,"dy":7},{"dx":0,"dy":0},{"dx":1,"dy":5},{"dx":1,"dy":6},{"dx":0,"dy":0},{"dx":0,"dy":1},{"dx":1,"dy":2},{"dx":0,"dy":5},{"dx":0,"dy":1},{"dx":0,"dy":2},{"dx":0,"dy":1},{"dx":0,"dy":4},{"dx":0,"dy":1},{"dx":-5,"dy":10},{"dx":0,"dy":0},{"dx":-3,"dy":4},{"dx":-3,"dy":4},{"dx":-1,"dy":1},{"dx":-1,"dy":5},{"dx":0,"dy":1